<StructureMap 
  xmlns="http://hl7.org/fhir">
  <id value="FhirToCdaTypes"/>
  <meta>
    <versionId value="2"/>
    <lastUpdated value="2021-11-03T10:16:56.175+00:00"/>
  </meta>
  <contained>
    <ConceptMap 
      xmlns="http://hl7.org/fhir">
      <id value="uri2oid"/>
      <status value="draft"/>
      <group>
        <source value="http://hl7.org/fhir"/>
        <target value="http://hl7.org/cda"/>
        <element>
          <code value="http://snomed.info/sct"/>
          <target>
            <code value="2.16.840.1.113883.6.96"/>
            <equivalence value="equivalent"/>
          </target>
        </element>
        <element>
          <code value="http://loinc.org"/>
          <target>
            <code value="2.16.840.1.113883.6.1"/>
            <equivalence value="equivalent"/>
          </target>
        </element>
        <element>
          <code value="http://hl7.org/fhir/sid/atc"/>
          <target>
            <code value="2.16.840.1.113883.6.73"/>
            <equivalence value="equivalent"/>
            <comment value="see issue #4"/>
          </target>
        </element>
        <element>
          <code value="http://www.whocc.no/atc"/>
          <target>
            <code value="2.16.840.1.113883.6.73"/>
            <equivalence value="equivalent"/>
          </target>
        </element>
        <element>
          <code value="http://terminology.hl7.org/CodeSystem/v3-substanceAdminSubstitution"/>
          <target>
            <code value="2.16.840.1.113883.5.1070"/>
            <equivalence value="equivalent"/>
          </target>
        </element>
      </group>
    </ConceptMap>
  </contained>
  <contained>
    <ConceptMap 
      xmlns="http://hl7.org/fhir">
      <id value="uri2system"/>
      <status value="draft"/>
      <group>
        <source value="http://hl7.org/fhir"/>
        <target value="http://hl7.org/cda"/>
        <element>
          <code value="http://snomed.info/sct"/>
          <target>
            <code value="SNOMED CT"/>
            <equivalence value="equivalent"/>
          </target>
        </element>
        <element>
          <code value="http://loinc.org"/>
          <target>
            <code value="LOINC"/>
            <equivalence value="equivalent"/>
          </target>
        </element>
        <element>
          <code value="http://hl7.org/fhir/sid/atc"/>
          <target>
            <code value="ATC WHO"/>
            <equivalence value="equivalent"/>
            <comment value="see issue #4"/>
          </target>
        </element>
        <element>
          <code value="http://www.whocc.no/atc"/>
          <target>
            <code value="ATC WHO"/>
            <equivalence value="equivalent"/>
          </target>
        </element>
        <element>
          <code value="http://terminology.hl7.org/CodeSystem/v3-substanceAdminSubstitution"/>
          <target>
            <code value="HL7 Substance Admin Substitution"/>
            <equivalence value="equivalent"/>
          </target>
        </element>
      </group>
    </ConceptMap>
  </contained>
  <contained>
    <ConceptMap 
      xmlns="http://hl7.org/fhir">
      <id value="oid2system"/>
      <status value="draft"/>
      <group>
        <source value="http://hl7.org/fhir"/>
        <target value="http://hl7.org/cda"/>
        <element>
          <code value="urn:oid:2.51.1.1"/>
          <target>
            <code value="GTIN"/>
            <equivalence value="equivalent"/>
          </target>
        </element>
        <element>
          <code value="urn:oid:1.3.6.1.4.1.19376.1.9.2.1"/>
          <target>
            <code value="IHE Pharmaceutical Advice Status List"/>
            <equivalence value="equivalent"/>
          </target>
        </element>
      </group>
    </ConceptMap>
  </contained>
  <contained>
    <ConceptMap 
      xmlns="http://hl7.org/fhir">
      <id value="addressUse"/>
      <status value="draft"/>
      <group>
        <source value="http://hl7.org/fhir/valueset-address-use.html"/>
        <target value="http://terminology.hl7.org/ValueSet/v3-AddressUse"/>
        <element>
          <code value="home"/>
          <target>
            <code value="H"/>
            <equivalence value="equivalent"/>
            <comment value="home -> home address"/>
          </target>
        </element>
        <element>
          <code value="work"/>
          <target>
            <code value="WP"/>
            <equivalence value="equivalent"/>
            <comment value="work -> work place"/>
          </target>
        </element>
        <element>
          <code value="temp"/>
          <target>
            <code value="TMP"/>
            <equivalence value="equivalent"/>
            <comment value="Temporary -> temporary address"/>
          </target>
        </element>
        <element>
          <code value="old"/>
          <target>
            <code value="OLD"/>
            <equivalence value="equivalent"/>
            <comment value="Old / Incorrect -> no longer in use, could be also t:&quot;BAD&quot; for bad address"/>
          </target>
        </element>
      </group>
    </ConceptMap>
  </contained>
  <extension url="http://fhir.ch/reference">
    <valueReference>
      <reference value="#uri2oid"/>
    </valueReference>
  </extension>
  <extension url="http://fhir.ch/reference">
    <valueReference>
      <reference value="#uri2system"/>
    </valueReference>
  </extension>
  <extension url="http://fhir.ch/reference">
    <valueReference>
      <reference value="#oid2system"/>
    </valueReference>
  </extension>
  <extension url="http://fhir.ch/reference">
    <valueReference>
      <reference value="#addressUse"/>
    </valueReference>
  </extension>
  <url value="http://fhir.ch/ig/cda-fhir-maps/StructureMap/FhirToCdaTypes"/>
  <name value="FhirToCdaTypes"/>
  <description value="Adapted from https://github.com/HL7/ccda-to-fhir/tree/master/mappings&#xd;&#xa;CDA:  http://build.fhir.org/ig/ahdis/cda-core-2.0/branches/master/index.html&#xd;&#xa;FHIR: http://hl7.org/fhir/r4/"/>
  <structure>
    <url value="http://hl7.org/fhir/StructureDefinition/Identifier"/>
    <mode value="source"/>
  </structure>
  <structure>
    <url value="http://hl7.org/fhir/cda/StructureDefinition/II"/>
    <mode value="target"/>
  </structure>
  <group>
    <name value="Any"/>
    <typeMode value="none"/>
    <input>
      <name value="src"/>
      <mode value="source"/>
    </input>
    <input>
      <name value="tgt"/>
      <mode value="target"/>
    </input>
    <rule>
      <name value="extension"/>
      <source>
        <context value="src"/>
        <element value="extension"/>
        <variable value="extension"/>
        <condition value="$this.url = 'http://hl7.org/fhir/StructureDefinition/iso21090-nullFlavor'"/>
      </source>
      <target>
        <context value="tgt"/>
        <contextType value="variable"/>
        <element value="nullFlavor"/>
        <variable value="nullFlavor"/>
      </target>
      <rule>
        <name value="nullFlavor"/>
        <source>
          <context value="extension"/>
          <element value="valueCode"/>
          <variable value="valueCode"/>
        </source>
        <rule>
          <name value="value"/>
          <source>
            <context value="valueCode"/>
            <element value="value"/>
            <variable value="v"/>
          </source>
          <target>
            <context value="nullFlavor"/>
            <contextType value="variable"/>
            <element value="value"/>
            <transform value="cast"/>
            <parameter>
              <valueId value="v"/>
            </parameter>
            <parameter>
              <valueString value="string"/>
            </parameter>
          </target>
        </rule>
      </rule>
    </rule>
  </group>
  <group>
    <name value="IdentifierII"/>
    <extends value="Any"/>
    <typeMode value="types"/>
    <input>
      <name value="src"/>
      <type value="Identifier"/>
      <mode value="source"/>
    </input>
    <input>
      <name value="tgt"/>
      <type value="II"/>
      <mode value="target"/>
    </input>
    <rule>
      <name value="idAsUuid"/>
      <source>
        <context value="src"/>
        <element value="value"/>
        <variable value="value"/>
        <condition value="src.system.empty() and src.value.startsWith('urn:uuid:')"/>
      </source>
      <target>
        <context value="tgt"/>
        <contextType value="variable"/>
        <element value="root"/>
        <transform value="evaluate"/>
        <parameter>
          <valueString value="value.substring(9).upper()"/>
        </parameter>
      </target>
    </rule>
    <rule>
      <name value="idAsUuid"/>
      <source>
        <context value="src"/>
        <element value="value"/>
        <variable value="value"/>
        <condition value="src.system = 'urn:ietf:rfc:3986'"/>
      </source>
      <target>
        <context value="tgt"/>
        <contextType value="variable"/>
        <element value="root"/>
        <transform value="evaluate"/>
        <parameter>
          <valueString value="value.substring(9).upper()"/>
        </parameter>
      </target>
    </rule>
    <rule>
      <name value="system"/>
      <source>
        <context value="src"/>
        <element value="value"/>
        <variable value="value"/>
        <condition value="src.system.startsWith('urn:oid:')"/>
      </source>
      <rule>
        <name value="oidident"/>
        <source>
          <context value="src"/>
          <element value="system"/>
          <variable value="system"/>
        </source>
        <target>
          <context value="tgt"/>
          <contextType value="variable"/>
          <element value="root"/>
          <transform value="evaluate"/>
          <parameter>
            <valueString value="system.substring(8)"/>
          </parameter>
        </target>
        <target>
          <context value="tgt"/>
          <contextType value="variable"/>
          <element value="extension"/>
          <transform value="copy"/>
          <parameter>
            <valueId value="value"/>
          </parameter>
        </target>
      </rule>
    </rule>
  </group>
  <group>
    <name value="IntegerINT"/>
    <extends value="Any"/>
    <typeMode value="types"/>
    <input>
      <name value="src"/>
      <type value="integer"/>
      <mode value="source"/>
    </input>
    <input>
      <name value="tgt"/>
      <type value="INT"/>
      <mode value="target"/>
    </input>
    <rule>
      <name value="integer"/>
      <source>
        <context value="src"/>
        <element value="value"/>
        <variable value="v"/>
      </source>
      <target>
        <context value="tgt"/>
        <contextType value="variable"/>
        <element value="value"/>
        <transform value="copy"/>
        <parameter>
          <valueId value="v"/>
        </parameter>
      </target>
    </rule>
  </group>
  <group>
    <name value="InstantTS"/>
    <extends value="Any"/>
    <typeMode value="types"/>
    <documentation value="group Identifier(source src : Identifier, target tgt : II) extends Any &lt;&lt;types>> {&#xd;&#xa;src.system as system then {&#xd;&#xa;src.value as value then {&#xd;&#xa;value.value as v where system.value = 'urn:ietf:rfc:3986' -> tgt.root = cast(v, 'string') &quot;noExtension&quot;;&#xd;&#xa;system.value as v where system.value != 'urn:ietf:rfc:3986' -> tgt.root = v then {&#xd;&#xa;value.value as val -> tgt.extension = cast(val, 'string') &quot;extension&quot;;&#xd;&#xa;} &quot;withExtension&quot;;&#xd;&#xa;} &quot;rootValue&quot;;&#xd;&#xa;} &quot;root&quot;;&#xd;&#xa;src.value as value -> tgt.root = '123' &quot;test&quot;;&#xd;&#xa;src -> tgt.root = '123' &quot;test&quot;;&#xd;&#xa;src.assigner as a then {&#xd;&#xa;a.display as display then {&#xd;&#xa;display.value as val -> tgt.assigningAuthorityName = cast(val, 'string');&#xd;&#xa;} &quot;display&quot;;&#xd;&#xa;} &quot;assigner&quot;;&#xd;&#xa;src.extension as ext where ext.url = 'http://hl7.org/fhir/cdaStructureDefinition/extension-displayable' -> tgt.displayable as displayable then {&#xd;&#xa;ext.value as v -> displayable.value = cast(v, 'string');&#xd;&#xa;} &quot;displayable&quot;;&#xd;&#xa;}"/>
    <input>
      <name value="src"/>
      <type value="instant"/>
      <mode value="source"/>
    </input>
    <input>
      <name value="tgt"/>
      <type value="TS"/>
      <mode value="target"/>
    </input>
    <rule>
      <name value="copy"/>
      <source>
        <context value="src"/>
        <element value="value"/>
        <variable value="v"/>
      </source>
      <target>
        <context value="tgt"/>
        <contextType value="variable"/>
        <element value="value"/>
        <transform value="copy"/>
        <parameter>
          <valueId value="v"/>
        </parameter>
      </target>
    </rule>
  </group>
  <group>
    <name value="DateTimeTS"/>
    <extends value="InstantTS"/>
    <typeMode value="types"/>
    <input>
      <name value="src"/>
      <type value="dateTime"/>
      <mode value="source"/>
    </input>
    <input>
      <name value="tgt"/>
      <type value="TS"/>
      <mode value="target"/>
    </input>
  </group>
  <group>
    <name value="DateTS"/>
    <extends value="InstantTS"/>
    <typeMode value="types"/>
    <input>
      <name value="src"/>
      <type value="date"/>
      <mode value="source"/>
    </input>
    <input>
      <name value="tgt"/>
      <type value="TS"/>
      <mode value="target"/>
    </input>
  </group>
  <group>
    <name value="CodeCS"/>
    <extends value="Any"/>
    <typeMode value="types"/>
    <input>
      <name value="src"/>
      <type value="code"/>
      <mode value="source"/>
    </input>
    <input>
      <name value="tgt"/>
      <type value="CS"/>
      <mode value="target"/>
    </input>
    <rule>
      <name value="code"/>
      <source>
        <context value="src"/>
        <element value="code"/>
        <variable value="c"/>
      </source>
      <target>
        <context value="tgt"/>
        <contextType value="variable"/>
        <element value="value"/>
        <transform value="cast"/>
        <parameter>
          <valueId value="c"/>
        </parameter>
        <parameter>
          <valueString value="string"/>
        </parameter>
      </target>
    </rule>
  </group>
  <group>
    <name value="CodeCE"/>
    <extends value="CodeCS"/>
    <typeMode value="types"/>
    <input>
      <name value="src"/>
      <type value="code"/>
      <mode value="source"/>
    </input>
    <input>
      <name value="tgt"/>
      <type value="CE"/>
      <mode value="target"/>
    </input>
  </group>
  <group>
    <name value="CodeCD"/>
    <extends value="CodeCS"/>
    <typeMode value="types"/>
    <input>
      <name value="src"/>
      <type value="code"/>
      <mode value="source"/>
    </input>
    <input>
      <name value="tgt"/>
      <type value="CD"/>
      <mode value="target"/>
    </input>
  </group>
  <group>
    <name value="CodingCE"/>
    <extends value="Any"/>
    <typeMode value="types"/>
    <input>
      <name value="src"/>
      <type value="Coding"/>
      <mode value="source"/>
    </input>
    <input>
      <name value="tgt"/>
      <type value="CE"/>
      <mode value="target"/>
    </input>
    <rule>
      <name value="code"/>
      <source>
        <context value="src"/>
        <element value="code"/>
        <variable value="code"/>
      </source>
      <target>
        <context value="tgt"/>
        <contextType value="variable"/>
        <element value="code"/>
        <transform value="copy"/>
        <parameter>
          <valueId value="code"/>
        </parameter>
      </target>
    </rule>
    <rule>
      <name value="system"/>
      <source>
        <context value="src"/>
        <element value="system"/>
        <variable value="system"/>
        <condition value="$this.startsWith('http:')"/>
      </source>
      <target>
        <context value="tgt"/>
        <contextType value="variable"/>
        <element value="codeSystem"/>
        <transform value="translate"/>
        <parameter>
          <valueId value="system"/>
        </parameter>
        <parameter>
          <valueString value="#uri2oid"/>
        </parameter>
        <parameter>
          <valueString value="code"/>
        </parameter>
      </target>
    </rule>
    <rule>
      <name value="system"/>
      <source>
        <context value="src"/>
        <element value="system"/>
        <variable value="system"/>
        <condition value="$this.startsWith('urn:oid:')"/>
      </source>
      <rule>
        <name value="oidident"/>
        <source>
          <context value="src"/>
          <element value="system"/>
          <variable value="system"/>
        </source>
        <target>
          <context value="tgt"/>
          <contextType value="variable"/>
          <element value="codeSystem"/>
          <transform value="evaluate"/>
          <parameter>
            <valueString value="system.substring(8)"/>
          </parameter>
        </target>
      </rule>
    </rule>
    <rule>
      <name value="systemName1"/>
      <source>
        <context value="src"/>
        <element value="system"/>
        <variable value="system"/>
        <condition value="$this.startsWith('http:')"/>
      </source>
      <target>
        <context value="tgt"/>
        <contextType value="variable"/>
        <element value="codeSystemName"/>
        <transform value="translate"/>
        <parameter>
          <valueId value="system"/>
        </parameter>
        <parameter>
          <valueString value="#uri2system"/>
        </parameter>
        <parameter>
          <valueString value="code"/>
        </parameter>
      </target>
    </rule>
    <rule>
      <name value="systemName2"/>
      <source>
        <context value="src"/>
        <element value="system"/>
        <variable value="system"/>
        <condition value="$this.startsWith('urn:oid:')"/>
      </source>
      <target>
        <context value="tgt"/>
        <contextType value="variable"/>
        <element value="codeSystemName"/>
        <transform value="translate"/>
        <parameter>
          <valueId value="system"/>
        </parameter>
        <parameter>
          <valueString value="#oid2system"/>
        </parameter>
        <parameter>
          <valueString value="code"/>
        </parameter>
      </target>
    </rule>
    <rule>
      <name value="display"/>
      <source>
        <context value="src"/>
        <element value="display"/>
        <variable value="display"/>
      </source>
      <target>
        <context value="tgt"/>
        <contextType value="variable"/>
        <element value="displayName"/>
        <transform value="copy"/>
        <parameter>
          <valueId value="display"/>
        </parameter>
      </target>
    </rule>
  </group>
  <group>
    <name value="CodeableConceptCE"/>
    <extends value="Any"/>
    <typeMode value="types"/>
    <input>
      <name value="src"/>
      <type value="CodeableConcept"/>
      <mode value="source"/>
    </input>
    <input>
      <name value="tgt"/>
      <type value="CE"/>
      <mode value="target"/>
    </input>
    <rule>
      <name value="text"/>
      <source>
        <context value="src"/>
        <element value="text"/>
        <variable value="text"/>
      </source>
      <target>
        <context value="tgt"/>
        <contextType value="variable"/>
        <element value="orginialText"/>
        <variable value="originalText"/>
      </target>
      <target>
        <context value="originalText"/>
        <contextType value="variable"/>
        <element value="data"/>
        <transform value="copy"/>
        <parameter>
          <valueId value="text"/>
        </parameter>
      </target>
    </rule>
    <rule>
      <name value="first"/>
      <source>
        <context value="src"/>
        <element value="coding"/>
        <listMode value="first"/>
        <variable value="coding"/>
      </source>
      <dependent>
        <name value="CodingCE"/>
        <variable value="coding"/>
        <variable value="tgt"/>
      </dependent>
    </rule>
    <rule>
      <name value="translation"/>
      <source>
        <context value="src"/>
        <element value="coding"/>
        <listMode value="not_first"/>
        <variable value="coding"/>
      </source>
      <target>
        <context value="tgt"/>
        <contextType value="variable"/>
        <element value="translation"/>
        <variable value="translation"/>
      </target>
      <dependent>
        <name value="CodingCE"/>
        <variable value="coding"/>
        <variable value="translation"/>
      </dependent>
    </rule>
  </group>
  <group>
    <name value="AddressAD"/>
    <extends value="Any"/>
    <typeMode value="types"/>
    <documentation value="group CECodeableConcept(source src : CE, target tgt : CodeableConcept) extends Any &lt;&lt;types>> {&#xd;&#xa;src.originalText -> tgt.text;&#xd;&#xa;src -> tgt.coding as coding then {&#xd;&#xa;src.code as code -> coding.code = cast(code, 'string');&#xd;&#xa;src.codeSystem as system -> coding.system = translate(system, 'http://hl7.org/fhir/ConceptMap/special-oid2uri', 'uri');&#xd;&#xa;src.displayName as display -> coding.display = cast(display, 'string');&#xd;&#xa;} &quot;code&quot;;&#xd;&#xa;src.translation as translation -> tgt.coding as coding then {&#xd;&#xa;translation.code as code -> coding.code = cast(code, 'string');&#xd;&#xa;translation.codeSystem as system -> coding.system = translate(system, 'http://hl7.org/fhir/ConceptMap/special-oid2uri', 'uri');&#xd;&#xa;translation.displayName as display -> coding.display = cast(display, 'string');&#xd;&#xa;} &quot;translation&quot;;&#xd;&#xa;}&#xd;&#xa;group CSCodeableConcept(source src : CS, target tgt : CodeableConcept) extends CECodeableConcept &lt;&lt;types>> {&#xd;&#xa;}&#xd;&#xa;group CDCodeableConcept(source src : CD, target tgt : CodeableConcept) extends CECodeableConcept &lt;&lt;types>> {&#xd;&#xa;}"/>
    <input>
      <name value="src"/>
      <type value="Address"/>
      <mode value="source"/>
    </input>
    <input>
      <name value="tgt"/>
      <type value="AD"/>
      <mode value="target"/>
    </input>
    <rule>
      <name value="streetAddress"/>
      <source>
        <context value="src"/>
        <element value="line"/>
        <variable value="v"/>
      </source>
      <target>
        <context value="tgt"/>
        <contextType value="variable"/>
        <element value="streetAddressLine"/>
        <variable value="line"/>
      </target>
      <target>
        <context value="line"/>
        <contextType value="variable"/>
        <element value="data"/>
        <transform value="copy"/>
        <parameter>
          <valueId value="v"/>
        </parameter>
      </target>
    </rule>
    <rule>
      <name value="postalCode"/>
      <source>
        <context value="src"/>
        <element value="postalCode"/>
        <variable value="v"/>
      </source>
      <target>
        <context value="tgt"/>
        <contextType value="variable"/>
        <element value="postalCode"/>
        <variable value="postalCode"/>
      </target>
      <target>
        <context value="postalCode"/>
        <contextType value="variable"/>
        <element value="data"/>
        <transform value="copy"/>
        <parameter>
          <valueId value="v"/>
        </parameter>
      </target>
    </rule>
    <rule>
      <name value="nullFlavor"/>
      <source>
        <context value="src"/>
        <condition value="$this.postalCode.exists() = false"/>
      </source>
      <target>
        <context value="tgt"/>
        <contextType value="variable"/>
        <element value="postalCode"/>
        <variable value="postalCode"/>
      </target>
      <target>
        <context value="postalCode"/>
        <contextType value="variable"/>
        <element value="nullFlavor"/>
        <transform value="copy"/>
        <parameter>
          <valueString value="NI"/>
        </parameter>
      </target>
    </rule>
    <rule>
      <name value="city"/>
      <source>
        <context value="src"/>
        <element value="city"/>
        <variable value="v"/>
      </source>
      <target>
        <context value="tgt"/>
        <contextType value="variable"/>
        <element value="city"/>
        <variable value="city"/>
      </target>
      <target>
        <context value="city"/>
        <contextType value="variable"/>
        <element value="data"/>
        <transform value="copy"/>
        <parameter>
          <valueId value="v"/>
        </parameter>
      </target>
    </rule>
    <rule>
      <name value="nullFlavor"/>
      <source>
        <context value="src"/>
        <condition value="$this.city.exists() = false"/>
      </source>
      <target>
        <context value="tgt"/>
        <contextType value="variable"/>
        <element value="city"/>
        <variable value="city"/>
      </target>
      <target>
        <context value="city"/>
        <contextType value="variable"/>
        <element value="nullFlavor"/>
        <transform value="copy"/>
        <parameter>
          <valueString value="NI"/>
        </parameter>
      </target>
    </rule>
    <rule>
      <name value="state"/>
      <source>
        <context value="src"/>
        <element value="state"/>
        <variable value="v"/>
      </source>
      <target>
        <context value="tgt"/>
        <contextType value="variable"/>
        <element value="state"/>
        <variable value="state"/>
      </target>
      <target>
        <context value="state"/>
        <contextType value="variable"/>
        <element value="data"/>
        <transform value="copy"/>
        <parameter>
          <valueId value="v"/>
        </parameter>
      </target>
    </rule>
    <rule>
      <name value="district"/>
      <source>
        <context value="src"/>
        <element value="district"/>
        <variable value="v"/>
      </source>
      <target>
        <context value="tgt"/>
        <contextType value="variable"/>
        <element value="county"/>
        <variable value="county"/>
      </target>
      <target>
        <context value="county"/>
        <contextType value="variable"/>
        <element value="data"/>
        <transform value="copy"/>
        <parameter>
          <valueId value="v"/>
        </parameter>
      </target>
    </rule>
    <rule>
      <name value="country"/>
      <source>
        <context value="src"/>
        <element value="country"/>
        <variable value="v"/>
      </source>
      <target>
        <context value="tgt"/>
        <contextType value="variable"/>
        <element value="country"/>
        <variable value="country"/>
      </target>
      <target>
        <context value="country"/>
        <contextType value="variable"/>
        <element value="data"/>
        <transform value="copy"/>
        <parameter>
          <valueId value="v"/>
        </parameter>
      </target>
    </rule>
    <rule>
      <name value="nullFlavor"/>
      <source>
        <context value="src"/>
        <condition value="$this.country.exists() = false"/>
      </source>
      <target>
        <context value="tgt"/>
        <contextType value="variable"/>
        <element value="country"/>
        <variable value="country"/>
      </target>
      <target>
        <context value="country"/>
        <contextType value="variable"/>
        <element value="nullFlavor"/>
        <transform value="copy"/>
        <parameter>
          <valueString value="NI"/>
        </parameter>
      </target>
    </rule>
    <rule>
      <name value="addressUse"/>
      <source>
        <context value="src"/>
        <element value="use"/>
        <variable value="c"/>
      </source>
      <target>
        <context value="tgt"/>
        <contextType value="variable"/>
        <element value="use"/>
        <transform value="translate"/>
        <parameter>
          <valueId value="c"/>
        </parameter>
        <parameter>
          <valueString value="#addressUse"/>
        </parameter>
        <parameter>
          <valueString value="code"/>
        </parameter>
      </target>
    </rule>
  </group>
  <group>
    <name value="ContactPointTEL"/>
    <extends value="Any"/>
    <typeMode value="types"/>
    <input>
      <name value="src"/>
      <type value="ContactPoint"/>
      <mode value="source"/>
    </input>
    <input>
      <name value="tgt"/>
      <type value="TEL"/>
      <mode value="target"/>
    </input>
    <rule>
      <name value="value"/>
      <source>
        <context value="src"/>
        <element value="value"/>
        <variable value="value"/>
      </source>
      <target>
        <context value="tgt"/>
        <contextType value="variable"/>
        <element value="value"/>
        <transform value="evaluate"/>
        <parameter>
          <valueString value="iif(%src.system = 'phone', 'tel:', '') + iif(%src.system = 'fax', 'fax:', '') + iif(%src.system = 'email', 'mailto:', '') + iif(%src.system = 'url', 'http:', '') + value"/>
        </parameter>
      </target>
    </rule>
    <rule>
      <name value="use"/>
      <source>
        <context value="src"/>
        <element value="use"/>
        <variable value="use"/>
        <condition value="$this = 'home'"/>
      </source>
      <target>
        <context value="tgt"/>
        <contextType value="variable"/>
        <element value="use"/>
        <transform value="copy"/>
        <parameter>
          <valueString value="HP"/>
        </parameter>
      </target>
    </rule>
    <rule>
      <name value="use"/>
      <source>
        <context value="src"/>
        <element value="use"/>
        <variable value="use"/>
        <condition value="$this = 'work'"/>
      </source>
      <target>
        <context value="tgt"/>
        <contextType value="variable"/>
        <element value="use"/>
        <transform value="copy"/>
        <parameter>
          <valueString value="WP"/>
        </parameter>
      </target>
    </rule>
    <rule>
      <name value="use"/>
      <source>
        <context value="src"/>
        <element value="use"/>
        <variable value="use"/>
        <condition value="$this = 'old'"/>
      </source>
      <target>
        <context value="tgt"/>
        <contextType value="variable"/>
        <element value="use"/>
        <transform value="copy"/>
        <parameter>
          <valueString value="BAD"/>
        </parameter>
      </target>
    </rule>
    <rule>
      <name value="use"/>
      <source>
        <context value="src"/>
        <element value="use"/>
        <variable value="use"/>
        <condition value="$this = 'temp'"/>
      </source>
      <target>
        <context value="tgt"/>
        <contextType value="variable"/>
        <element value="use"/>
        <transform value="copy"/>
        <parameter>
          <valueString value="TMP"/>
        </parameter>
      </target>
    </rule>
    <rule>
      <name value="use"/>
      <source>
        <context value="src"/>
        <element value="use"/>
        <variable value="use"/>
        <condition value="$this = 'mobile'"/>
      </source>
      <target>
        <context value="tgt"/>
        <contextType value="variable"/>
        <element value="use"/>
        <transform value="copy"/>
        <parameter>
          <valueString value="MC"/>
        </parameter>
      </target>
    </rule>
  </group>
  <group>
    <name value="HumanNameEN"/>
    <extends value="Any"/>
    <typeMode value="types"/>
    <input>
      <name value="src"/>
      <type value="HumanName"/>
      <mode value="source"/>
    </input>
    <input>
      <name value="tgt"/>
      <type value="EN"/>
      <mode value="target"/>
    </input>
    <rule>
      <name value="family"/>
      <source>
        <context value="src"/>
        <element value="family"/>
        <variable value="v"/>
      </source>
      <target>
        <context value="tgt"/>
        <contextType value="variable"/>
        <element value="family"/>
        <variable value="family"/>
      </target>
      <target>
        <context value="family"/>
        <contextType value="variable"/>
        <element value="data"/>
        <transform value="copy"/>
        <parameter>
          <valueId value="v"/>
        </parameter>
      </target>
    </rule>
    <rule>
      <name value="given"/>
      <source>
        <context value="src"/>
        <element value="given"/>
        <variable value="v"/>
      </source>
      <target>
        <context value="tgt"/>
        <contextType value="variable"/>
        <element value="given"/>
        <variable value="given"/>
      </target>
      <target>
        <context value="given"/>
        <contextType value="variable"/>
        <element value="data"/>
        <transform value="copy"/>
        <parameter>
          <valueId value="v"/>
        </parameter>
      </target>
    </rule>
    <rule>
      <name value="prefix"/>
      <source>
        <context value="src"/>
        <element value="prefix"/>
        <variable value="v"/>
      </source>
      <target>
        <context value="tgt"/>
        <contextType value="variable"/>
        <element value="prefix"/>
        <variable value="prefix"/>
      </target>
      <target>
        <context value="prefix"/>
        <contextType value="variable"/>
        <element value="data"/>
        <transform value="copy"/>
        <parameter>
          <valueId value="v"/>
        </parameter>
      </target>
    </rule>
    <rule>
      <name value="suffix"/>
      <source>
        <context value="src"/>
        <element value="suffix"/>
        <variable value="v"/>
      </source>
      <target>
        <context value="tgt"/>
        <contextType value="variable"/>
        <element value="suffix"/>
        <variable value="suffix"/>
      </target>
      <target>
        <context value="suffix"/>
        <contextType value="variable"/>
        <element value="data"/>
        <transform value="copy"/>
        <parameter>
          <valueId value="v"/>
        </parameter>
      </target>
    </rule>
  </group>
  <group>
    <name value="QuantityPQ"/>
    <extends value="Any"/>
    <typeMode value="types"/>
    <input>
      <name value="src"/>
      <type value="Quantity"/>
      <mode value="source"/>
    </input>
    <input>
      <name value="tgt"/>
      <type value="PQ"/>
      <mode value="target"/>
    </input>
    <rule>
      <name value="code"/>
      <source>
        <context value="src"/>
        <element value="code"/>
        <variable value="code"/>
      </source>
      <target>
        <context value="tgt"/>
        <contextType value="variable"/>
        <element value="unit"/>
        <transform value="copy"/>
        <parameter>
          <valueId value="code"/>
        </parameter>
      </target>
    </rule>
    <rule>
      <name value="value"/>
      <source>
        <context value="src"/>
        <element value="value"/>
        <variable value="value"/>
      </source>
      <target>
        <context value="tgt"/>
        <contextType value="variable"/>
        <element value="value"/>
        <transform value="copy"/>
        <parameter>
          <valueId value="value"/>
        </parameter>
      </target>
    </rule>
  </group>
  <group>
    <name value="RatioRTOPQPQ"/>
    <extends value="Any"/>
    <typeMode value="types"/>
    <input>
      <name value="src"/>
      <type value="Ratio"/>
      <mode value="source"/>
    </input>
    <input>
      <name value="tgt"/>
      <type value="RTO_PQ_PQ"/>
      <mode value="target"/>
    </input>
    <rule>
      <name value="numerator"/>
      <source>
        <context value="src"/>
        <element value="numerator"/>
        <variable value="numerator"/>
      </source>
      <target>
        <context value="tgt"/>
        <contextType value="variable"/>
        <element value="numerator"/>
        <variable value="targetNumerator"/>
      </target>
      <dependent>
        <name value="QuantityPQ"/>
        <variable value="numerator"/>
        <variable value="targetNumerator"/>
      </dependent>
    </rule>
    <rule>
      <name value="denominator"/>
      <source>
        <context value="src"/>
        <element value="denominator"/>
        <variable value="denominator"/>
      </source>
      <target>
        <context value="tgt"/>
        <contextType value="variable"/>
        <element value="denominator"/>
        <variable value="targetDenominator"/>
      </target>
      <dependent>
        <name value="QuantityPQ"/>
        <variable value="denominator"/>
        <variable value="targetDenominator"/>
      </dependent>
    </rule>
  </group>
</StructureMap>