<?xml version="1.0" encoding="UTF-8"?>

<Bundle xmlns="http://hl7.org/fhir">
  <identifier>
    <system value="urn:ietf:rfc:3986"/>
    <value value="urn:uuid:31397b31-be60-47e1-bec6-f37816d42b0c"/>
  </identifier>
  <type value="document"/>
  <timestamp value="2017-10-03T17:33:00+01:00"/>
  <entry>
    <fullUrl value="urn:uuid:153c02db-1be2-401e-a7c0-ad48a8a45b5a"/>
    <resource>
      <Composition>
        <language value="de-CH"/>
        <extension url="http://fhir.ch/ig/ch-core/StructureDefinition/ch-ext-epr-setid">
          <valueIdentifier>
            <system value="urn:ietf:rfc:3986"/>
            <value value="urn:uuid:807563c2-5146-11d5-a672-00b0d022e945"/>
          </valueIdentifier>
        </extension>
        <extension url="http://fhir.ch/ig/ch-core/StructureDefinition/ch-ext-epr-versionnumber">
          <valueUnsignedInt value="2"/>
        </extension>
        <extension url="http://fhir.ch/ig/ch-core/StructureDefinition/ch-ext-epr-informationrecipient">
          <valueReference>
            <reference value="urn:uuid:17c81ed3-ec34-40af-8527-6aebc16ac55a"/>
            <type value="Organization"/>
          </valueReference>
        </extension>
        <extension url="http://fhir.ch/ig/ch-core/StructureDefinition/ch-ext-epr-dataenterer">
          <extension url="enterer">
            <valueReference>
              <reference value="urn:uuid:445118d2-da97-4b0f-9dc3-d048877fe8e7"/>
              <type value="Person"/>
            </valueReference>
          </extension>
          <extension url="http://fhir.ch/ig/ch-core/StructureDefinition/ch-ext-epr-time">
            <valueDateTime value="2017-10-03T13:15:00+01:00"/>
          </extension>
        </extension>
        <identifier>
          <system value="urn:ietf:rfc:3986"/>
          <value value="urn:uuid:31397b31-be60-47e1-bec6-f37816d42b0c"/>
        </identifier>
        <status value="final"/>
        <type>
          <coding>
            <system value="http://loinc.org"/>
            <code value="28616-1"/>
            <display value="Physician Transfer note"/>
          </coding>
          <coding>
            <system value="http://snomed.info/sct"/>
            <code value="371535009"/>
            <display value="Transfer summary report"/>
          </coding>
        </type>
        <subject>
          <reference value="urn:uuid:34d49733-71eb-43e7-ae0b-dfd53b7eb1bd"/>
          <type value="Patient"/>
        </subject>
        <date value="2017-10-03T17:33:00+01:00"/>
        <author>
          <extension url="http://fhir.ch/ig/ch-core/StructureDefinition/ch-ext-epr-time">
            <valueDateTime value="2017-10-03T16:09:00+01:00"/>
          </extension>
          <reference value="urn:uuid:99718777-3f42-405c-841c-feda3b7dd9da"/>
          <type value="Practitioner"/>
        </author>
        <author>
          <reference value="urn:uuid:317ae8ed-473f-4734-a090-d5f1e81a2046"/>
          <type value="Organization"/>
        </author>
        <title value="Zuweisung zur Radiologischen Diagnostik"/>
        <confidentiality value="N">
          <extension url="http://fhir.ch/ig/ch-core/StructureDefinition/ch-ext-epr-confidentialitycode">
            <valueCodeableConcept>
              <coding>
                <system value="http://snomed.info/sct"/>
                <code value="17621005"/>
                <display value="Normally accessible"/>
              </coding>
            </valueCodeableConcept>
          </extension>
        </confidentiality>
        <attester>
          <mode value="legal"/>
          <time value="2017-10-03"/>
          <party>
            <reference value="urn:uuid:8a0889ab-57fe-42bd-9543-90bc9c5c32d6"/>
            <type value="Practitioner"/>
          </party>
        </attester>
        <custodian>
          <reference value="urn:uuid:083cd72e-f166-4034-9f25-bf8332dd27da"/>
          <type value="Organization"/>
        </custodian>
        <section>
          <title value="Gew&#xFC;nschte Untersuchung"/>
          <text>
            <status value="generated"/>
            <div xmlns="http://www.w3.org/1999/xhtml">
              <span>
							Der Patient erwartet Ihr Aufgebot zur Untersuchung.<br/>
              </span>
              <span style="font-style: italic">
							Spezifizierung der gewünschten Untersuchung<br/>
              </span>
            </div>
          </text>
        </section>
        <section>
          <title value="Dringlichkeit / Wunschtermin"/>
          <text>
            <status value="generated"/>
            <div xmlns="http://www.w3.org/1999/xhtml">
              <span style="font-style: italic">
							Angaben zum gewünschten Termin
              </span>
            </div>
          </text>
        </section>
        <section>
          <title value="Fragestellung"/>
          <text>
            <status value="generated"/>
            <div xmlns="http://www.w3.org/1999/xhtml">
              <span style="font-style: italic">
							Grund für die Durchführung der Untersuchung und Angaben zum aktuellen Leiden resp. zum Grund der Untersuchung
              </span>
            </div>
          </text>
        </section>
        <section>
          <title value="Angaben zum Patienten"/>
          <text>
            <status value="generated"/>
            <div xmlns="http://www.w3.org/1999/xhtml">
              <span style="font-style: italic">
							Erfolgte Voruntersuchungen<br/>
							Befundkopie – Empfänger<br/>
            </span>
          </div>
        </text>
      </section>
      <section>
        <title value="Klinische Angaben"/>
        <text>
          <status value="generated"/>
          <div xmlns="http://www.w3.org/1999/xhtml">
            <span style="font-style: italic">
							Beschreibung des aktuellen Leidens<br/>
							Schwangerschaft ja / nein<br/>
							Laborwerte (Quick / Tc, Kreatinin)<br/>
							Bekannte Allergien<br/>
      </span>
    </div>
  </text>
</section>
</Composition>
</resource>
</entry>
<entry>
<fullUrl value="urn:uuid:34d49733-71eb-43e7-ae0b-dfd53b7eb1bd"/>
<resource>
<Patient>
<identifier>
  <type>
    <coding>
      <system value="http://terminology.hl7.org/CodeSystem/v2-0203"/>
      <code value="MR"/>
    </coding>
  </type>
  <system value="urn:oid:2.16.756.888888.3.1"/>
  <value value="8733"/>
</identifier>
<name>
  <family value="MUSTER"/>
  <given value="Max"/>
</name>
<telecom>
  <system value="phone"/>
  <value value="+41.32.685.12.34"/>
  <use value="home"/>
</telecom>
<telecom>
  <system value="phone"/>
  <value value="+41.32.123.77.88"/>
  <use value="work"/>
</telecom>
<telecom>
  <system value="email"/>
  <value value="max.muster@sampledomain.ch"/>
  <use value="work"/>
</telecom>
<gender value="male"/>
<birthDate value="1938-12-12"/>
<address>
  <use value="home"/>
  <line value="Leidensweg"/>
  <line value="10"/>
  <city value="Specimendorf"/>
  <postalCode value="9999"/>
  <country value="CH"/>
</address>
<managingOrganization>
  <reference value="urn:uuid:7414ff85-3cb2-4357-a020-c92bad678c30"/>
  <type value="Organization"/>
</managingOrganization>
</Patient>
</resource>
</entry>
<entry>
<fullUrl value="urn:uuid:7414ff85-3cb2-4357-a020-c92bad678c30"/>
<resource>
<Organization>
<identifier>
  <system value="urn:oid:2.51.1.3"/>
  <value value="7601000201041"/>
</identifier>
<name value="Gruppenpraxis CH, Dr. med. Allzeit Bereit"/>
</Organization>
</resource>
</entry>
<entry>
<fullUrl value="urn:uuid:99718777-3f42-405c-841c-feda3b7dd9da"/>
<resource>
<Practitioner>
<identifier>
  <system value="urn:oid:2.51.1.3"/>
  <value value="7601000201041"/>
</identifier>
<name>
  <family value="Bereit"/>
  <given value="Allzeit"/>
  <prefix value="Dr. med."/>
  <suffix value="Facharzt f&#xFC;r Allgemeine Medizin"/>
</name>
</Practitioner>
</resource>
</entry>
<entry>
<fullUrl value="urn:uuid:317ae8ed-473f-4734-a090-d5f1e81a2046"/>
<resource>
<Organization>
<identifier>
  <system value="urn:oid:2.51.1.3"/>
  <value value="7601000201041"/>
</identifier>
<name value="Gruppenpraxis CH"/>
<telecom>
  <system value="phone"/>
  <value value="+41.32.234.55.66"/>
  <use value="work"/>
</telecom>
<telecom>
  <system value="fax"/>
  <value value="+41.32.234.66.77"/>
  <use value="work"/>
</telecom>
<telecom>
  <system value="email"/>
  <value value="bereit@gruppenpraxis.ch"/>
  <use value="work"/>
</telecom>
<telecom>
  <system value="url"/>
  <value value="//www.gruppenpraxis.ch"/>
  <use value="work"/>
</telecom>
<address>
  <use value="work"/>
  <line value="Doktorgasse"/>
  <line value="2"/>
  <city value="Musterhausen"/>
  <postalCode value="8888"/>
  <country value="CH"/>
</address>
</Organization>
</resource>
</entry>
<entry>
<fullUrl value="urn:uuid:8a0889ab-57fe-42bd-9543-90bc9c5c32d6"/>
<resource>
<Practitioner>
<identifier>
  <system value="urn:oid:2.51.1.3"/>
  <value value="7601000201041"/>
</identifier>
<name>
  <family value="Bereit"/>
  <given value="Allzeit"/>
  <prefix value="Dr. med."/>
  <suffix value="Facharzt f&#xFC;r Allgemeine Medizin"/>
</name>
</Practitioner>
</resource>
</entry>
<entry>
<fullUrl value="urn:uuid:083cd72e-f166-4034-9f25-bf8332dd27da"/>
<resource>
<Organization>
<identifier>
  <system value="urn:oid:2.51.1.3"/>
  <value value="7601000201041"/>
</identifier>
<name value="Gruppenpraxis CH, Dr. med. Allzeit Bereit, Facharzt f&#xFC;r Allgemeine Medizin"/>
<address>
  <use value="work"/>
  <line value="Doktorgasse"/>
  <line value="2"/>
  <city value="Musterhausen"/>
  <postalCode value="8888"/>
  <country value="CH"/>
</address>
</Organization>
</resource>
</entry>
<entry>
<fullUrl value="urn:uuid:17c81ed3-ec34-40af-8527-6aebc16ac55a"/>
<resource>
<Organization>
<name value="RoDiag Radiologieinstitut"/>
<address>
  <use value="work"/>
  <line value="R&#xF6;ntgenstr."/>
  <line value="1"/>
  <city value="Musterhausen"/>
  <postalCode value="8888"/>
  <country value="CH"/>
</address>
</Organization>
</resource>
</entry>
<entry>
<fullUrl value="urn:uuid:445118d2-da97-4b0f-9dc3-d048877fe8e7"/>
<resource>
<Person>
<identifier>
  <system value="urn:oid:2.999"/>
  <value value="0812763"/>
</identifier>
<name>
  <family value="Kraft"/>
  <given value="Schreib"/>
</name>
</Person>
</resource>
</entry>
</Bundle>