<Bundle 
  xmlns="http://hl7.org/fhir">
  <identifier>
    <system value="urn:ietf:rfc:3986"/>
    <value value="urn:uuid:6b6ed376-a7da-44cb-92d1-e75ce1ae73b0"/>
  </identifier>
  <type value="document"/>
  <timestamp value="2012-02-04T14:05:00+01:00"/>
  <entry>
    <fullUrl value="urn:uuid:1a012be9-befc-4a24-8521-38bce4f94450"/>
    <resource>
      <Composition>
        <language value="de-CH"/>
        <extension url="http://fhir.ch/ig/ch-core/StructureDefinition/ch-ext-epr-setid">
          <valueIdentifier>
            <system value="urn:ietf:rfc:3986"/>
            <value value="urn:uuid:6b6ed376-a7da-44cb-92d1-e75ce1ae73b0"/>
          </valueIdentifier>
        </extension>
        <extension url="http://fhir.ch/ig/ch-core/StructureDefinition/ch-ext-epr-versionnumber">
          <valueUnsignedInt value="1"/>
        </extension>
        <extension url="http://fhir.ch/ig/ch-core/StructureDefinition/ch-ext-epr-informationrecipient">
          <valueReference>
            <reference value="urn:uuid:c0e0e45d-e191-44a6-9134-2cd82cfd21fc"/>
            <type value="Patient"/>
          </valueReference>
        </extension>
        <identifier>
          <system value="urn:ietf:rfc:3986"/>
          <value value="urn:uuid:6b6ed376-a7da-44cb-92d1-e75ce1ae73b0"/>
        </identifier>
        <status value="final"/>
        <type>
          <coding>
            <system value="http://loinc.org"/>
            <code value="56445-0"/>
            <display value="Medication summary"/>
          </coding>
          <coding>
            <system value="http://snomed.info/sct"/>
            <code value="721912009"/>
            <display value="Medication summary document (record artifact)"/>
          </coding>
        </type>
        <subject>
          <reference value="urn:uuid:71423859-1641-486f-9d6f-c63a73e61146"/>
          <type value="Patient"/>
        </subject>
        <date value="2012-02-04T14:05:00+01:00"/>
        <author>
          <extension url="http://fhir.ch/ig/ch-core/StructureDefinition/ch-ext-epr-time">
            <valueDateTime value="2012-02-04T13:55:00+01:00"/>
          </extension>
          <reference value="urn:uuid:99ed0ea4-4f51-4045-a48e-2355a345ecf0"/>
          <type value="Practitioner"/>
        </author>
        <author>
          <reference value="urn:uuid:8d07da2b-e60d-4989-95ed-6310eef2a899"/>
          <type value="Organization"/>
        </author>
        <title value="Medikationsplan"/>
        <confidentiality value="N">
          <extension url="http://fhir.ch/ig/ch-core/StructureDefinition/ch-ext-epr-confidentialitycode">
            <valueCodeableConcept>
              <coding>
                <system value="http://snomed.info/sct"/>
                <code value="17621005"/>
                <display value="Normally accessible"/>
              </coding>
            </valueCodeableConcept>
          </extension>
        </confidentiality>
        <custodian>
          <reference value="urn:uuid:ab78b4d2-b367-4a53-ad17-680fc0187101"/>
          <type value="Organization"/>
        </custodian>
        <section>
          <title value="Kommentar"/>
          <code>
            <coding>
              <system value="http://loinc.org"/>
              <code value="48767-8"/>
              <display value="Annotation comment"/>
            </coding>
          </code>
          <text>
            <status value="generated"/>
            <div 
              xmlns="http://www.w3.org/1999/xhtml">
              <span id="co1">
                  Kommentar zu Medication Treatment
                </span>
            </div>
          </text>
        </section>
        <section>
          <title value="Original representation"/>
          <code>
            <coding>
              <system value="http://loinc.org"/>
              <code value="55108-5"/>
              <display value="Clinical presentation"/>
            </coding>
          </code>
          <text>
            <status value="generated"/>
            <div 
              xmlns="http://www.w3.org/1999/xhtml">
            Representation of the original view:
            
              <img src="pdf1"/>
            </div>
          </text>
          <entry>
            <extension url="http://hl7.org/fhir/StructureDefinition/narrativeLink">
              <valueUrl value="pdf1"/>
            </extension>
            <reference value="urn:uuid:a5a6490c-36bc-4d05-aa0b-a8efd946dd4b"/>
            <type value="Binary"/>
          </entry>
        </section>
        <section>
          <extension url="http://fhir.ch/ig/ch-core/StructureDefinition/ch-ext-epr-sectionid">
            <valueIdentifier>
              <system value="urn:ietf:rfc:3986"/>
              <value value="urn:uuid:5fb3eacf-be0d-42aa-9619-abf008c50051"/>
            </valueIdentifier>
          </extension>
          <title value="Medikamentenliste"/>
          <code>
            <coding>
              <system value="http://loinc.org"/>
              <code value="10160-0"/>
              <display value="History of medication use"/>
            </coding>
          </code>
          <text>
            <status value="generated"/>
            <div 
              xmlns="http://www.w3.org/1999/xhtml">
              <table>
                <thead>
                  <tr>
                    <th>Präpartename</th>
                    <th>Wirkstoffname</th>
                    <th>Galenische Form</th>
                    <th>Dosis pro Einheit</th>
                    <th>Dosierung</th>
                    <th>Dos.Morgen</th>
                    <th>Dos.Mittag</th>
                    <th>Dos.Abend</th>
                    <th>Dos.Nacht</th>
                    <th>Verabreichungsweg</th>
                    <th>Kommentar</th>
                    <th>Anwendungsdauer</th>
                    <th>Behandlungsgrund</th>
                  </tr>
                </thead>
                <tbody>
                  <tr id="mtpc.1">
                    <td id="mtpc.1.brandedmedication">Beloc Zok</td>
                    <td id="mtpc.1.ingredient">Metoprolol</td>
                    <td id="mtpc.1.packageform"> Ret Tbl</td>
                    <td id="mtpc.1.dosequantity">2.5 mg</td>
                    <td id="mtpc.1.dosageintakemode">Morgens 1 und abends 1/2 Tablette nehmen</td>
                    <td id="mtpc.1.dosagemorning">1</td>
                    <td id="mtpc.1.dosagelunch">0</td>
                    <td id="mtpc.1.dosageevening">0.5</td>
                    <td id="mtpc.1.dosagenight">0</td>
                    <td id="mtpc.1.routecode">oral</td>
                    <td id="mtpc.1.note">-</td>
                    <td id="mtpc.1.datefromto"/>
                    <td id="mtpc.1.reason">Bluthochdruck</td>
                  </tr>
                  <tr id="mtpc.2">
                    <td id="mtpc.2.brandedmedication">Norvasc</td>
                    <td id="mtpc.2.ingredient">Amlodipin</td>
                    <td id="mtpc.2.packageform">Tbl</td>
                    <td id="mtpc.2.dosequantity">10 mg</td>
                    <td id="mtpc.2.dosageintakemode">Morgens und abends je 1 Tablette nehmen</td>
                    <td id="mtpc.2.dosagemorning">1</td>
                    <td id="mtpc.2.dosagelunch">0</td>
                    <td id="mtpc.2.dosageevening">1</td>
                    <td id="mtpc.2.dosagenight">0</td>
                    <td id="mtpc.2.routecode">oral</td>
                    <td id="mtpc.2.note"/>
                    <td id="mtpc.2.datefromto">-</td>
                    <td id="mtpc.2.reason">Bluthochdruck</td>
                  </tr>
                </tbody>
              </table>
            </div>
          </text>
          <entry>
            <reference value="urn:uuid:ebc8501b-2433-4141-961c-133d9f462be9"/>
            <type value="MedicationStatement"/>
          </entry>
          <entry>
            <reference value="urn:uuid:09804c9c-45a5-4582-9dbf-90dd0548bd1a"/>
            <type value="MedicationStatement"/>
          </entry>
        </section>
      </Composition>
    </resource>
  </entry>
  <entry>
    <fullUrl value="urn:uuid:71423859-1641-486f-9d6f-c63a73e61146"/>
    <resource>
      <Patient>
        <identifier>
          <type>
            <coding>
              <system value="http://terminology.hl7.org/CodeSystem/v2-0203"/>
              <code value="MR"/>
            </coding>
          </type>
          <system value="urn:oid:2.999"/>
          <value value="11111111"/>
        </identifier>
        <name>
          <family value="Wegmüller"/>
          <given value="Monika"/>
        </name>
        <gender value="female"/>
        <birthDate value="1943-05-15"/>
        <address>
          <line value="Wiesenstr. 12"/>
          <city value="Zürich"/>
          <postalCode value="8003"/>
          <country value="CH"/>
        </address>
      </Patient>
    </resource>
  </entry>
  <entry>
    <fullUrl value="urn:uuid:99ed0ea4-4f51-4045-a48e-2355a345ecf0"/>
    <resource>
      <Practitioner>
        <identifier>
          <system value="urn:oid:2.51.1.3"/>
          <value value="7601000234438"/>
        </identifier>
        <name>
          <family value="Hausarzt"/>
          <given value="Familien"/>
        </name>
      </Practitioner>
    </resource>
  </entry>
  <entry>
    <fullUrl value="urn:uuid:8d07da2b-e60d-4989-95ed-6310eef2a899"/>
    <resource>
      <Organization>
        <identifier>
          <system value="urn:oid:2.51.1.3"/>
          <value value="7601000234438"/>
        </identifier>
        <name value="Hausarzt"/>
        <telecom>
          <extension url="http://hl7.org/fhir/StructureDefinition/iso21090-nullFlavor">
            <valueCode value="NI"/>
          </extension>
        </telecom>
        <address>
          <line value="Krankenstrasse 2"/>
          <city value="Zürich"/>
          <postalCode value="8005"/>
          <country value="CH"/>
        </address>
      </Organization>
    </resource>
  </entry>
  <entry>
    <fullUrl value="urn:uuid:ab78b4d2-b367-4a53-ad17-680fc0187101"/>
    <resource>
      <Organization>
        <identifier>
          <system value="urn:oid:2.51.1.3"/>
          <value value="7601000234438"/>
        </identifier>
        <name value="Hausarzt"/>
      </Organization>
    </resource>
  </entry>
  <entry>
    <fullUrl value="urn:uuid:c0e0e45d-e191-44a6-9134-2cd82cfd21fc"/>
    <resource>
      <Patient>
        <name>
          <family value="Wegmüller"/>
          <given value="Monika"/>
        </name>
        <address>
          <line value="Wiesenstr. 12"/>
          <city value="Zürich"/>
          <postalCode value="8003"/>
          <country value="CH"/>
        </address>
      </Patient>
    </resource>
  </entry>
  <entry>
    <fullUrl value="urn:uuid:a5a6490c-36bc-4d05-aa0b-a8efd946dd4b"/>
    <resource>
      <Binary>
        <language value="en-US"/>
        <contentType value="application/pdf"/>
        <data value="c25pcA=="/>
      </Binary>
    </resource>
  </entry>
  <entry>
    <fullUrl value="urn:uuid:ebc8501b-2433-4141-961c-133d9f462be9"/>
    <resource>
      <MedicationStatement>
        <contained>
          <Medication>
            <id value="med"/>
            <code>
              <extension url="http://hl7.org/fhir/StructureDefinition/narrativeLink">
                <valueUrl value="#mtpc.1.brandedmedication"/>
              </extension>
              <coding>
                <system value="urn:oid:2.51.1.1"/>
                <code value="7680521101306"/>
                <display value="BELOC ZOK Ret Tabl 50 mg 30 Stk"/>
              </coding>
              <text value="BELOC ZOK Ret Tabl 50 mg"/>
            </code>
            <form>
              <coding>
                <system value="urn:oid:0.4.0.127.0.16.1.1.2.1"/>
                <code value="10219000"/>
                <display value="Tablet"/>
              </coding>
            </form>
            <amount>
              <numerator>
                <value value="30"/>
              </numerator>
              <denominator>
                <value value="1"/>
              </denominator>
            </amount>
            <ingredient>
              <itemCodeableConcept>
                <coding>
                  <system value="http://snomed.info/sct"/>
                  <code value="372826007"/>
                  <display value="Metoprolol (substance)"/>
                </coding>
                <text value="Metoprolol"/>
              </itemCodeableConcept>
              <strength>
                <numerator>
                  <value value="50"/>
                  <unit value="mg"/>
                  <system value="http://unitsofmeasure.org"/>
                  <code value="mg"/>
                </numerator>
                <denominator>
                  <value value="1"/>
                  <unit value="Tablet"/>
                  <system value="http://snomed.info/sct"/>
                  <code value="732936001"/>
                </denominator>
              </strength>
            </ingredient>
          </Medication>
        </contained>
        <extension url="http://hl7.org/fhir/StructureDefinition/narrativeLink">
          <valueUrl value="#mtpc.1"/>
        </extension>
        <extension url="http://fhir.ch/ig/ch-emed/StructureDefinition/ch-emed-ext-treatmentplan">
          <extension url="id">
            <valueIdentifier>
              <system value="urn:ietf:rfc:3986"/>
              <value value="urn:uuid:5712fffe-20c6-11e6-b67b-9e71128cae77"/>
            </valueIdentifier>
          </extension>
          <extension url="externalDocumentId">
            <valueIdentifier>
              <system value="urn:ietf:rfc:3986"/>
              <value value="urn:uuid:5712fffe-20c6-11e6-b67b-9e71128cae77"/>
            </valueIdentifier>
          </extension>
        </extension>
        <identifier>
          <system value="urn:ietf:rfc:3986"/>
          <value value="urn:uuid:d0f885ca-afa6-4e7e-905d-f7698f9607aa"/>
        </identifier>
        <status value="completed"/>
        <medicationReference>
          <reference value="#med"/>
          <type value="Medication"/>
        </medicationReference>
        <subject>
          <reference value="urn:uuid:71423859-1641-486f-9d6f-c63a73e61146"/>
          <type value="Patient"/>
        </subject>
        <reasonCode>
          <extension url="http://hl7.org/fhir/StructureDefinition/narrativeLink">
            <valueUrl value="#mtpc.1.reason"/>
          </extension>
          <text value="Bluthochdruck"/>
        </reasonCode>
        <note>
          <extension url="http://hl7.org/fhir/StructureDefinition/narrativeLink">
            <valueUrl value="#mtpc.1.note"/>
          </extension>
          <text value="-"/>
        </note>
        <dosage>
          <extension url="http://hl7.org/fhir/StructureDefinition/narrativeLink">
            <valueUrl value="#mtpc.1.dosageintakemode"/>
          </extension>
          <text value="Morgens 1 und abends 1/2 Tablette nehmen"/>
        </dosage>
        <dosage>
          <extension url="http://fhir.ch/ig/ch-emed/StructureDefinition/ch-emed-ext-dosagetype">
            <valueIdentifier>
              <value value="1.3.6.1.4.1.19376.1.5.3.1.4.9"/>
            </valueIdentifier>
          </extension>
          <sequence value="1"/>
          <timing>
            <repeat>
              <boundsPeriod>
                <start value="2012-02-04"/>
              </boundsPeriod>
              <when value="ACM"/>
            </repeat>
          </timing>
          <route>
            <coding>
              <system value="urn:oid:0.4.0.127.0.16.1.1.2.1"/>
              <code value="20053000"/>
              <display value="Oral use"/>
            </coding>
          </route>
          <doseAndRate>
            <doseQuantity>
              <value value="1"/>
              <unit value="Tablet (unit of presentation)" />
              <system value="http://snomed.info/sct"/>
              <code value="732936001"/>
            </doseQuantity>
          </doseAndRate>
        </dosage>
        <dosage>
          <extension url="http://fhir.ch/ig/ch-emed/StructureDefinition/ch-emed-ext-dosagetype">
            <valueIdentifier>
              <value value="1.3.6.1.4.1.19376.1.5.3.1.4.9"/>
            </valueIdentifier>
          </extension>
          <sequence value="2"/>
          <timing>
            <repeat>
              <boundsPeriod>
                <start value="2012-02-04"/>
              </boundsPeriod>
              <when value="ACV"/>
            </repeat>
          </timing>
          <route>
            <coding>
              <system value="urn:oid:0.4.0.127.0.16.1.1.2.1"/>
              <code value="20053000"/>
              <display value="Oral use"/>
            </coding>
          </route>
          <doseAndRate>
            <doseQuantity>
              <value value="0.5"/>
              <system value="http://snomed.info/sct"/>
              <code value="732936001"/>
            </doseQuantity>
          </doseAndRate>
        </dosage>
      </MedicationStatement>
    </resource>
  </entry>
  <entry>
    <fullUrl value="urn:uuid:09804c9c-45a5-4582-9dbf-90dd0548bd1a"/>
    <resource>
      <MedicationStatement>
        <contained>
          <Medication>
            <id value="med"/>
            <code>
              <extension url="http://hl7.org/fhir/StructureDefinition/narrativeLink">
                <valueUrl value="#mtpc.2.brandedmedication"/>
              </extension>
              <coding>
                <system value="urn:oid:2.51.1.1"/>
                <code value="7680500440334"/>
                <display value="NORVASC Tabl 10 mg"/>
              </coding>
              <text value="NORVASC Tabl 10 mg"/>
            </code>
            <form>
              <coding>
                <system value="urn:oid:0.4.0.127.0.16.1.1.2.1"/>
                <code value="10219000"/>
                <display value="Tablet"/>
              </coding>
            </form>
            <amount>
              <numerator>
                <value value="30"/>
              </numerator>
              <denominator>
                <value value="1"/>
              </denominator>
            </amount>
            <ingredient>
              <itemCodeableConcept>
                <coding>
                  <system value="http://snomed.info/sct"/>
                  <code value="386864001"/>
                  <display value="Amlodipine (substance)"/>
                </coding>
                <text value="Amlodipine"/>
              </itemCodeableConcept>
              <strength>
                <numerator>
                  <value value="10"/>
                  <unit value="mg"/>
                  <system value="http://unitsofmeasure.org"/>
                  <code value="mg"/>
                </numerator>
                <denominator>
                  <value value="1"/>
                  <system value="http://snomed.info/sct"/>
                  <code value="732936001"/>
                </denominator>
              </strength>
            </ingredient>
          </Medication>
        </contained>
        <extension url="http://hl7.org/fhir/StructureDefinition/narrativeLink">
          <valueUrl value="#mtpc.2"/>
        </extension>
        <extension url="http://fhir.ch/ig/ch-emed/StructureDefinition/ch-emed-ext-treatmentplan">
          <extension url="id">
            <valueIdentifier>
              <system value="urn:ietf:rfc:3986"/>
              <value value="urn:uuid:5712fffe-20c6-11e6-b67b-9e71128cae77"/>
            </valueIdentifier>
          </extension>
          <extension url="externalDocumentId">
            <valueIdentifier>
              <system value="urn:ietf:rfc:3986"/>
              <value value="urn:uuid:5712fffe-20c6-11e6-b67b-9e71128cae77"/>
            </valueIdentifier>
          </extension>
        </extension>
        <identifier>
          <system value="urn:ietf:rfc:3986"/>
          <value value="urn:uuid:534996fe-5e45-40ed-9388-06fa268e13d8"/>
        </identifier>
        <status value="completed"/>
        <medicationReference>
          <reference value="#med"/>
          <type value="Medication"/>
        </medicationReference>
        <subject>
          <reference value="urn:uuid:71423859-1641-486f-9d6f-c63a73e61146"/>
          <type value="Patient"/>
        </subject>
        <reasonCode>
          <extension url="http://hl7.org/fhir/StructureDefinition/narrativeLink">
            <valueUrl value="#mtpc.2.reason"/>
          </extension>
          <text value="Bluthochdruck"/>
        </reasonCode>
        <note>
          <extension url="http://hl7.org/fhir/StructureDefinition/narrativeLink">
            <valueUrl value="#mtpc.2.note"/>
          </extension>
        </note>
        <dosage>
          <extension url="http://fhir.ch/ig/ch-emed/StructureDefinition/ch-emed-ext-dosagetype">
            <valueIdentifier>
              <value value="1.3.6.1.4.1.19376.1.5.3.1.4.7.1"/>
            </valueIdentifier>
          </extension>
          <timing>
            <repeat>
              <boundsPeriod>
                <start value="2012-02-04"/>
              </boundsPeriod>
              <when value="ACM"/>
              <when value="ACV"/>
            </repeat>
          </timing>
          <route>
            <coding>
              <system value="urn:oid:0.4.0.127.0.16.1.1.2.1"/>
              <code value="20053000"/>
              <display value="Oral use"/>
            </coding>
          </route>
          <doseAndRate>
            <doseQuantity>
              <value value="1"/>
              <system value="http://snomed.info/sct"/>
              <code value="732936001"/>
            </doseQuantity>
          </doseAndRate>
        </dosage>
        <dosage>
          <extension url="http://hl7.org/fhir/StructureDefinition/narrativeLink">
            <valueUrl value="#mtpc.2.dosageintakemode"/>
          </extension>
          <text value="Morgens und abends je 1 Tablette nehmen"/>
        </dosage>
      </MedicationStatement>
    </resource>
  </entry>
</Bundle>