<?xml version="1.0" encoding="UTF-8"?>

<Bundle xmlns="http://hl7.org/fhir">
  <id value="bfaee80c-101c-4a96-8cd0-cd726190bfc7"/>
  <identifier>
    <system value="urn:ietf:rfc:3986"/>
    <value value="urn:uuid:17931678-20b4-11e6-b67b-9e71128cae77"/>
  </identifier>
  <type value="document"/>
  <timestamp value="2012-02-04T13:55:00+01:00"/>
  <entry>
    <fullUrl value="urn:uuid:51a57bee-0dbf-4020-b620-bf14e28eb85a"/>
    <resource>
      <Composition>
        <id value="51a57bee-0dbf-4020-b620-bf14e28eb85a"/>
        <language value="de-CH"/>
        <extension url="http://fhir.ch/ig/ch-core/StructureDefinition/ch-ext-epr-setid">
          <valueIdentifier>
            <system value="urn:ietf:rfc:3986"/>
            <value value="urn:uuid:17931678-20b4-11e6-b67b-9e71128cae77"/>
          </valueIdentifier>
        </extension>
        <extension url="http://fhir.ch/ig/ch-core/StructureDefinition/ch-ext-epr-versionnumber">
          <valueUnsignedInt value="1"/>
        </extension>
        <extension url="http://fhir.ch/ig/ch-core/StructureDefinition/ch-ext-epr-informationrecipient">
          <valueReference>
            <reference value="urn:uuid:994c0c80-1651-4fd5-8aaf-0b3b5f683f18"/>
            <type value="Patient"/>
          </valueReference>
        </extension>
        <identifier>
          <system value="urn:ietf:rfc:3986"/>
          <value value="urn:uuid:17931678-20b4-11e6-b67b-9e71128cae77"/>
        </identifier>
        <status value="final"/>
        <type>
          <coding>
            <system value="http://loinc.org"/>
            <code value="56445-0"/>
            <display value="Medication summary"/>
          </coding>
          <coding>
            <system value="http://snomed.info/sct"/>
            <code value="721912009"/>
            <display value="Medication summary document (record artifact)"/>
          </coding>
        </type>
        <subject>
          <reference value="urn:uuid:06f22ddf-5e9f-4914-b6cd-d49cea007859"/>
          <type value="Patient"/>
        </subject>
        <date value="2012-02-04T13:55:00+01:00"/>
        <author>
          <extension url="http://fhir.ch/ig/ch-core/StructureDefinition/ch-ext-epr-time">
            <valueDateTime value="2012-02-04T13:55:00+01:00"/>
          </extension>
          <reference value="urn:uuid:5bf24721-66be-497c-a0ae-a1b99b99ea0b"/>
          <type value="Practitioner"/>
        </author>
        <author>
          <reference value="urn:uuid:c382824b-e8e8-4eb8-9dfc-d91c90bafd4a"/>
          <type value="Organization"/>
        </author>
        <title value="Medikationsliste"/>
        <confidentiality value="N">
          <extension url="http://fhir.ch/ig/ch-core/StructureDefinition/ch-ext-epr-confidentialitycode">
            <valueCodeableConcept>
              <coding>
                <system value="http://snomed.info/sct"/>
                <code value="17621005"/>
                <display value="Normally accessible"/>
              </coding>
            </valueCodeableConcept>
          </extension>
        </confidentiality>
        <custodian>
          <reference value="urn:uuid:772cfb14-0e2f-4dfe-9cdd-845a93019476"/>
          <type value="Organization"/>
        </custodian>
        <section>
          <extension url="http://fhir.ch/ig/ch-core/StructureDefinition/ch-ext-epr-sectionid">
            <valueIdentifier>
              <system value="urn:ietf:rfc:3986"/>
              <value value="urn:uuid:f5ee14ee-52dc-48b0-8d96-e2713c99e607"/>
            </valueIdentifier>
          </extension>
          <title value="Medikamentenliste"/>
          <code>
            <coding>
              <system value="http://loinc.org"/>
              <code value="10160-0"/>
              <display value="History of medication use"/>
            </coding>
          </code>
          <text>
            <status value="generated"/>
            <div xmlns="http://www.w3.org/1999/xhtml">
              <table>
                <thead>
                  <tr>
                    <th>Präpartename</th>
                    <th>Wirkstoffname</th>
                    <th>Galenische Form</th>
                    <th>Dosis pro Einheit</th>
                    <th>Dosierung</th>
                    <th>Dos.Morgen</th>
                    <th>Dos.Mittag</th>
                    <th>Dos.Abend</th>
                    <th>Dos.Nacht</th>
                    <th>Verabreichungsweg</th>
                    <th>Kommentar</th>
                    <th>Anwendungsdauer</th>
                    <th>Behandlungsgrund</th>
                    </tr>
                  </thead>
                  <tbody>
                    <tr id="mtp.1">
                      <td id="mtp.1.brandedmedication">Triatec</td>
                      <td id="mtp.1.ingredient">Ramipril</td>
                      <td id="mtp.1.packageform">Tbl</td>
                      <td id="mtp.1.dosequantity">2.5 mg</td>
                      <td id="mtp.1.dosageintakemode">Morgens 1/2 Tablette nehmen</td>
                      <td id="mtp.1.dosagemorning">0.5</td>
                      <td id="mtp.1.dosagelunch">0</td>
                      <td id="mtp.1.dosageevening">0</td>
                      <td id="mtp.1.dosagenight">0</td>
                      <td id="mtp.1.routecode">oral</td>
                      <td id="mtp.1.note"/>
                      <td id="mtp.1.datefromto"/>
                      <td id="mtp.1.reason">Bluthochdruck</td>
                    </tr>
                  </tbody>
                </table>
              </div>
          </text>
          <entry>
            <reference value="urn:uuid:7a5c23f1-8073-4020-a648-b09e520b6f0e"/>
            <type value="MedicationStatement"/>
          </entry>
          <entry>
            <reference value="urn:uuid:d2ed409f-b7d4-43c2-a822-e54fb2f96930"/>
            <type value="MedicationDispense"/>
          </entry>
        </section>
      </Composition>
    </resource>
  </entry>
  <entry>
    <fullUrl value="urn:uuid:06f22ddf-5e9f-4914-b6cd-d49cea007859"/>
    <resource>
      <Patient>
        <id value="06f22ddf-5e9f-4914-b6cd-d49cea007859"/>
        <identifier>
          <type>
            <coding>
              <system value="http://terminology.hl7.org/CodeSystem/v2-0203"/>
              <code value="MR"/>
            </coding>
          </type>
          <system value="urn:oid:2.999"/>
          <value value="11111111"/>
        </identifier>
        <name>
          <family value="Wegm&#xFC;ller"/>
          <given value="Monika"/>
        </name>
        <gender value="female"/>
        <birthDate value="1943-05-15"/>
        <address>
          <line value="Wiesenstr. 12"/>
          <city value="Z&#xFC;rich"/>
          <postalCode value="8003"/>
          <country value="CH"/>
        </address>
      </Patient>
    </resource>
  </entry>
  <entry>
    <fullUrl value="urn:uuid:5bf24721-66be-497c-a0ae-a1b99b99ea0b"/>
    <resource>
      <Practitioner>
        <id value="5bf24721-66be-497c-a0ae-a1b99b99ea0b"/>
        <identifier>
          <system value="urn:oid:2.51.1.3"/>
          <value value="7601000234438"/>
        </identifier>
        <name>
          <family value="Hausarzt"/>
          <given value="Familien"/>
        </name>
      </Practitioner>
    </resource>
  </entry>
  <entry>
    <fullUrl value="urn:uuid:c382824b-e8e8-4eb8-9dfc-d91c90bafd4a"/>
    <resource>
      <Organization>
        <id value="c382824b-e8e8-4eb8-9dfc-d91c90bafd4a"/>
        <identifier>
          <system value="urn:oid:2.51.1.3"/>
          <value value="7601000234438"/>
        </identifier>
        <name value="Hausarzt"/>
        <telecom>
          <extension url="http://hl7.org/fhir/StructureDefinition/iso21090-nullFlavor">
            <valueCode value="NI"/>
          </extension>
        </telecom>
        <address>
          <line value="Krankenstrasse 2"/>
          <city value="Z&#xFC;rich"/>
          <postalCode value="8005"/>
          <country value="CH"/>
        </address>
      </Organization>
    </resource>
  </entry>
  <entry>
    <fullUrl value="urn:uuid:772cfb14-0e2f-4dfe-9cdd-845a93019476"/>
    <resource>
      <Organization>
        <id value="772cfb14-0e2f-4dfe-9cdd-845a93019476"/>
        <identifier>
          <system value="urn:oid:2.51.1.3"/>
          <value value="7601000234438"/>
        </identifier>
        <name value="Hausarzt"/>
      </Organization>
    </resource>
  </entry>
  <entry>
    <fullUrl value="urn:uuid:994c0c80-1651-4fd5-8aaf-0b3b5f683f18"/>
    <resource>
      <Patient>
        <id value="994c0c80-1651-4fd5-8aaf-0b3b5f683f18"/>
        <name>
          <family value="Wegm&#xFC;ller"/>
          <given value="Monika"/>
        </name>
        <address>
          <line value="Wiesenstr. 12"/>
          <city value="Z&#xFC;rich"/>
          <postalCode value="8003"/>
          <country value="CH"/>
        </address>
      </Patient>
    </resource>
  </entry>
  <entry>
    <fullUrl value="urn:uuid:7a5c23f1-8073-4020-a648-b09e520b6f0e"/>
    <resource>
      <MedicationStatement>
        <id value="7a5c23f1-8073-4020-a648-b09e520b6f0e"/>
        <contained>
          <Medication>
            <id value="med"/>
            <code>
              <extension url="http://hl7.org/fhir/StructureDefinition/narrativeLink">
                <valueUrl value="#mtp.1.brandedmedication"/>
              </extension>
              <coding>
                <system value="urn:oid:2.51.1.1"/>
                <code value="7680538751228"/>
                <display value="TRIATEC Tabl 2.5 mg 20 Stk"/>
              </coding>
              <text value="TRIATEC Tabl 2.5 mg"/>
            </code>
            <form>
              <coding>
                <system value="urn:oid:0.4.0.127.0.16.1.1.2.1"/>
                <code value="10219000"/>
                <display value="Tablet"/>
              </coding>
            </form>
            <amount>
              <numerator>
                <value value="20"/>
              </numerator>
              <denominator>
                <value value="1"/>
              </denominator>
            </amount>
            <ingredient>
              <itemCodeableConcept>
                <coding>
                  <system value="http://snomed.info/sct"/>
                  <code value="386872004"/>
                  <display value="Ramipril (substance)"/>
                </coding>
                <text value="Ramipril"/>
              </itemCodeableConcept>
              <strength>
                <numerator>
                  <value value="2.5"/>
                  <unit value="mg"/>
                </numerator>
                <denominator>
                  <value value="1"/>
                  <unit value="1"/>
                </denominator>
              </strength>
            </ingredient>
          </Medication>
        </contained>
        <extension url="http://hl7.org/fhir/StructureDefinition/narrativeLink">
          <valueUrl value="#mtp.1"/>
        </extension>
        <identifier>
          <system value="urn:ietf:rfc:3986"/>
          <value value="urn:uuid:c9f758a1-296c-4710-84d4-e181db8c7478"/>
        </identifier>
        <status value="completed"/>
        <medicationReference>
          <reference value="#med"/>
          <type value="Medication"/>
        </medicationReference>
        <subject>
          <reference value="urn:uuid:06f22ddf-5e9f-4914-b6cd-d49cea007859"/>
          <type value="Patient"/>
        </subject>
        <reasonCode>
          <extension url="http://hl7.org/fhir/StructureDefinition/narrativeLink">
            <valueUrl value="#mtp.1.reason"/>
          </extension>
          <text value="Bluthochdruck"/>
        </reasonCode>
        <note>
          <extension url="http://hl7.org/fhir/StructureDefinition/narrativeLink">
            <valueUrl value="#mtp.1.note"/>
          </extension>
        </note>
        <dosage>
          <extension url="http://fhir.ch/ig/ch-emed/StructureDefinition/ch-emed-ext-dosagetype">
            <valueIdentifier>
              <value value="1.3.6.1.4.1.19376.1.5.3.1.4.7.1"/>
            </valueIdentifier>
          </extension>
          <timing>
            <repeat>
              <boundsPeriod>
                <start value="2011-11-29"/>
              </boundsPeriod>
              <when value="ACM"/>
            </repeat>
          </timing>
          <route>
            <coding>
              <system value="urn:oid:0.4.0.127.0.16.1.1.2.1"/>
              <code value="20053000"/>
              <display value="Oral use"/>
            </coding>
          </route>
          <doseAndRate>
            <doseQuantity>
              <value value="0.5"/>
            </doseQuantity>
          </doseAndRate>
        </dosage>
        <dosage>
          <extension url="http://hl7.org/fhir/StructureDefinition/narrativeLink">
            <valueUrl value="#mtp.1.dosageintakemode"/>
          </extension>
          <text value="Morgens 1/2 Tablette nehmen"/>
        </dosage>
      </MedicationStatement>
    </resource>
  </entry>
  <entry>
    <fullUrl value="urn:uuid:d2ed409f-b7d4-43c2-a822-e54fb2f96930"/>
    <resource>
      <MedicationDispense>
        <id value="d2ed409f-b7d4-43c2-a822-e54fb2f96930"/>
        <contained>
          <Medication>
            <id value="med"/>
          </Medication>
        </contained>
        <extension url="http://hl7.org/fhir/StructureDefinition/narrativeLink">
          <valueUrl value="#mtp.1"/>
        </extension>
        <extension url="http://fhir.ch/ig/ch-emed/StructureDefinition/ch-emed-ext-treatmentplan">
          <extension url="id">
            <valueIdentifier>
              <system value="urn:ietf:rfc:3986"/>
              <value value="urn:uuid:c9f758a1-296c-4710-84d4-e181db8c7478"/>
            </valueIdentifier>
          </extension>
          <extension url="externalDocumentId">
            <valueIdentifier>
              <system value="urn:ietf:rfc:3986"/>
              <value value="urn:uuid:c9f758a1-296c-4710-84d4-e181db8c7478"/>
            </valueIdentifier>
          </extension>
        </extension>
        <identifier>
          <system value="urn:ietf:rfc:3986"/>
          <value value="urn:uuid:488bd23a-20c6-11e6-b67b-9e71128cae77"/>
        </identifier>
        <status value="completed"/>
        <medicationReference>
          <reference value="#med"/>
          <type value="Medication"/>
        </medicationReference>
        <subject>
          <reference value="urn:uuid:06f22ddf-5e9f-4914-b6cd-d49cea007859"/>
          <type value="Patient"/>
        </subject>
      </MedicationDispense>
    </resource>
  </entry>
</Bundle>