<?xml version="1.0" encoding="UTF-8"?>
<Bundle xmlns="http://hl7.org/fhir">
   <id value="1-ZuweisungZurRadiologischenDiagnostik-FHIR"/>
   <meta>
      <lastUpdated value="2019-12-05T07:53:22.889+00:00"/>
      <profile value="http://fhir.ch/ig/ch-core/StructureDefinition/ch-core-document-epr"/>
   </meta>
   <identifier>
      <system value="urn:ietf:rfc:3986"/>
      <value value="urn:uuid:31397B31-BE60-47E1-BEC6-F37816D42B0C"/>
   </identifier>
   <type value="document"/>
   <timestamp value="2017-10-03T17:33:00+01:00"/>
   <entry>
      <fullUrl value="http://test.fhir.ch/r4/Composition/ZuweisungZurRadiologischenDiagnostik"/>
      <resource>
         <Composition xmlns="http://hl7.org/fhir">
            <id value="ZuweisungZurRadiologischenDiagnostik"/>
            <meta>
               <versionId value="1"/>
               <lastUpdated value="2019-12-05T07:53:12.886+00:00"/>
               <profile value="http://fhir.ch/ig/ch-core/StructureDefinition/ch-core-composition-epr"/>
            </meta>
            <language value="de-CH"/>
            <extension url="http://fhir.ch/ig/ch-core/StructureDefinition/ch-ext-epr-setid">
               <valueIdentifier>
                  <system value="urn:ietf:rfc:3986"/>
                  <value value="urn:uuid:807563C2-5146-11D5-A672-00B0D022E945"/>
               </valueIdentifier>
            </extension>
            <extension url="http://fhir.ch/ig/ch-core/StructureDefinition/ch-ext-epr-versionnumber">
               <valueUnsignedInt value="2"/>
            </extension>
            <extension url="http://fhir.ch/ig/ch-core/StructureDefinition/ch-ext-epr-informationrecipient">
               <valueReference>
                  <reference value="Organization/Radiologieinstitut"/>
               </valueReference>
            </extension>
            <extension url="http://fhir.ch/ig/ch-core/StructureDefinition/ch-ext-epr-dataenterer">
               <extension url="enterer">
                  <valueReference>
                     <reference value="Person/SchreibKraft"/>
                  </valueReference>
               </extension>
               <extension url="http://fhir.ch/ig/ch-core/StructureDefinition/ch-ext-epr-time">
                  <valueDateTime value="2017-10-03T13:15:00+01:00"/>
               </extension>
            </extension>
            <identifier>
               <system value="urn:ietf:rfc:3986"/>
               <value value="urn:uuid:31397B31-BE60-47E1-BEC6-F37816D42B0C"/>
            </identifier>
            <status value="final"/>
            <type>
               <coding>
                  <system value="http://loinc.org"/>
                  <code value="28616-1"/>
                  <display value="Physician Transfer note"/>
               </coding>
               <coding>
                  <system value="http://snomed.info/sct"/>
                  <code value="371535009"/>
                  <display value="Transfer summary report"/>
               </coding>
            </type>
            <subject>
               <reference value="Patient/MaxMuster"/>
            </subject>
            <date value="2017-10-03T17:33:00+01:00"/>
            <author>
               <extension url="http://fhir.ch/ig/ch-core/StructureDefinition/ch-ext-epr-time">
                  <valueDateTime value="2017-10-03T16:09:00+01:00"/>
               </extension>
               <reference value="Practitioner/AllzeitBereit"/>
            </author>
            <title value="Zuweisung zur Radiologischen Diagnostik"/>
            <confidentiality value="N">
               <extension url="http://fhir.ch/ig/ch-core/StructureDefinition/ch-ext-epr-confidentialitycode">
                  <valueCodeableConcept>
                     <coding>
                        <system value="http://snomed.info/sct"/>
                        <code value="17621005"/>
                        <display value="Normal"/>
                     </coding>
                  </valueCodeableConcept>
               </extension>
            </confidentiality>
            <attester>
               <mode value="legal"/>
               <time value="2017-10-03"/>
               <party>
                  <reference value="Practitioner/AllzeitBereit"/>
               </party>
            </attester>
            <custodian>
               <reference value="Organization/GruppenpraxisCH"/>
            </custodian>
            <section>
               <title value="Gewünschte Untersuchung"/>
               <text>
                  <status value="additional"/>
                  <div xmlns="http://www.w3.org/1999/xhtml"> Der Patient erwartet Ihr Aufgebot zur Untersuchung.
                     <br/>
                     <i>Spezifizierung der gewünschten Untersuchung</i>
                     <br/>
                  </div>
               </text>
            </section>
            <section>
               <title value="Dringlichkeit / Wunschtermin"/>
               <text>
                  <status value="additional"/>
                  <div xmlns="http://www.w3.org/1999/xhtml">
                     <i>Angaben zum gewünschten Termin</i>
                  </div>
               </text>
            </section>
            <section>
               <title value="Fragestellung"/>
               <text>
                  <status value="additional"/>
                  <div xmlns="http://www.w3.org/1999/xhtml">
                     <i>Grund für die Durchführung der Untersuchung und Angaben zum aktuellen Leiden resp. zum Grund der Untersuchung</i>
                  </div>
               </text>
            </section>
            <section>
               <title value="Angaben zum Patienten"/>
               <text>
                  <status value="additional"/>
                  <div xmlns="http://www.w3.org/1999/xhtml">
                     <i>Erfolgte Voruntersuchungen
                        <br/>
 Befundkopie – Empfänger
                     </i>
                     <br/>
                  </div>
               </text>
            </section>
            <section>
               <title value="Klinische Angaben"/>
               <text>
                  <status value="additional"/>
                  <div xmlns="http://www.w3.org/1999/xhtml">
                     <i>Beschreibung des aktuellen Leidens
                        <br/>
 Schwangerschaft ja / nein
                        <br/>
 Laborwerte (Quick / Tc, Kreatinin)
                        <br/>
 Bekannte Allergien
                     </i>
                     <br/>
                  </div>
               </text>
            </section>
         </Composition>
      </resource>
   </entry>
   <entry>
      <fullUrl value="http://test.fhir.ch/r4/Practitioner/AllzeitBereit"/>
      <resource>
         <Practitioner xmlns="http://hl7.org/fhir">
            <id value="AllzeitBereit"/>
            <meta>
               <versionId value="1"/>
               <lastUpdated value="2019-12-05T07:52:50.224+00:00"/>
               <profile value="http://fhir.ch/ig/ch-core/StructureDefinition/ch-core-practitioner"/>
            </meta>
            <identifier>
               <system value="urn:oid:2.51.1.3"/>
               <value value="7601000201041"/>
            </identifier>
            <name>
               <use value="official"/>
               <family value="Bereit"/>
               <given value="Allzeit"/>
               <prefix value="Dr. med."/>
               <suffix value="Facharzt für Allgemeine Medizin"/>
            </name>
         </Practitioner>
      </resource>
   </entry>
   <entry>
      <fullUrl value="http://test.fhir.ch/r4/Patient/MaxMuster"/>
      <resource>
         <Patient xmlns="http://hl7.org/fhir">
            <id value="MaxMuster"/>
            <meta>
               <versionId value="1"/>
               <lastUpdated value="2019-12-05T07:53:10.477+00:00"/>
               <profile value="http://fhir.ch/ig/ch-core/StructureDefinition/ch-core-patient"/>
            </meta>
            <identifier>
               <type>
                  <coding>
                     <system value="http://terminology.hl7.org/CodeSystem/v2-0203"/>
                     <code value="MR"/>
                  </coding>
               </type>
               <system value="urn:oid:2.16.756.888888.3.1"/>
               <value value="8733"/>
            </identifier>
            <name>
               <use value="official"/>
               <family value="Muster">
                  <extension url="http://fhir.ch/ig/ch-core/StructureDefinition/ch-ext-ech-11-name">
                     <valueCode value="officialName"/>
                  </extension>
               </family>
               <given value="Max">
                  <extension url="http://fhir.ch/ig/ch-core/StructureDefinition/ch-ext-ech-11-firstname">
                     <valueCode value="officialFirstName"/>
                  </extension>
               </given>
            </name>
            <telecom>
               <system value="phone"/>
               <value value="+41326851234"/>
               <use value="home"/>
            </telecom>
            <telecom>
               <system value="phone"/>
               <value value="+41321237788"/>
               <use value="work"/>
            </telecom>
            <telecom>
               <system value="email"/>
               <value value="max.muster@sampledomain.ch"/>
               <use value="home"/>
            </telecom>
            <gender value="male"/>
            <birthDate value="1938-12-12"/>
            <address>
               <use value="home"/>
               <line value="Leidensweg"/>
               <line value="10"/>
               <city value="Specimendorf"/>
               <postalCode value="9999"/>
               <country value="CH"/>
            </address>
            <managingOrganization>
               <reference value="Organization/GruppenpraxisCH"/>
            </managingOrganization>
         </Patient>
      </resource>
   </entry>
   <entry>
      <fullUrl value="http://test.fhir.ch/r4/Organization/GruppenpraxisCH"/>
      <resource>
         <Organization xmlns="http://hl7.org/fhir">
            <id value="GruppenpraxisCH"/>
            <meta>
               <versionId value="1"/>
               <lastUpdated value="2019-12-05T07:52:58.369+00:00"/>
               <profile value="http://fhir.ch/ig/ch-core/StructureDefinition/ch-core-organization"/>
            </meta>
            <identifier>
               <system value="urn:oid:2.51.1.3"/>
               <value value="7601000201041"/>
            </identifier>
            <name value="Gruppenpraxis CH"/>
            <telecom>
               <system value="phone"/>
               <value value="+41322345566"/>
               <use value="work"/>
            </telecom>
            <telecom>
               <system value="fax"/>
               <value value="+41322346677"/>
               <use value="work"/>
            </telecom>
            <telecom>
               <system value="email"/>
               <value value="bereit@gruppenpraxis.ch"/>
               <use value="work"/>
            </telecom>
            <telecom>
               <system value="url"/>
               <value value="http://www.gruppenpraxis.ch"/>
               <use value="work"/>
            </telecom>
            <address>
               <use value="work"/>
               <line value="Doktorgasse"/>
               <line value="2"/>
               <city value="Musterhausen"/>
               <postalCode value="8888"/>
               <country value="CH"/>
            </address>
         </Organization>
      </resource>
   </entry>
</Bundle>