<?xml version="1.0" encoding="UTF-8"?>
<Bundle xmlns="http://hl7.org/fhir">
  <identifier>
    <value value="urn:uuid:31397b31-be60-47e1-bec6-f37816d42b0c"/>
  </identifier>
  <type value="document"/>
  <timestamp value="2017-10-03T17:33:00+01:00"/>
  <entry>
    <resource>
      <Composition>
        <language value="de-CH"/>
        <extension url="http://fhir.ch/ig/ch-core/StructureDefinition/ch-ext-epr-setid">
          <valueIdentifier>
            <value value="urn:uuid:807563c2-5146-11d5-a672-00b0d022e945"/>
          </valueIdentifier>
        </extension>
        <extension url="http://fhir.ch/ig/ch-core/StructureDefinition/ch-ext-epr-versionnumber">
          <valueInteger value="2"/>
        </extension>
        <extension url="http://fhir.ch/ig/ch-core/StructureDefinition/ch-ext-epr-informationrecipient">
          <valueReference>
            <reference value="Organization/55f9fd9f-7f45-4fbd-8130-5b37224bf59d"/>
          </valueReference>
        </extension>
        <extension url="http://fhir.ch/ig/ch-core/StructureDefinition/ch-ext-epr-dataenterer">
          <extension url="enterer">
            <valueReference>
              <reference value="Person/fae0243a-9800-44f5-ba5b-0fe78f5cdf51"/>
            </valueReference>
          </extension>
          <extension url="http://fhir.ch/ig/ch-core/StructureDefinition/ch-ext-epr-time">
            <valueDateTime value="2017-10-03T13:15:00+01:00"/>
          </extension>
        </extension>
        <identifier>
          <value value="urn:uuid:807563c2-5146-11d5-a672-00b0d022e945"/>
        </identifier>
        <status value="final"/>
        <type>
          <coding>
            <system value="http://loinc.org"/>
            <code value="28616-1"/>
            <display value="Physician Transfer note"/>
          </coding>
          <coding>
            <system value="http://snomed.info/sct"/>
            <code value="371535009"/>
            <display value="Transfer summary report"/>
          </coding>
        </type>
        <subject>
          <reference value="Patient/5fe298e8-b993-424f-9a09-78d1f07d7c20"/>
        </subject>
        <date value="2017-10-03T17:33:00+01:00"/>
        <author>
          <extension url="http://fhir.ch/ig/ch-core/StructureDefinition/ch-ext-epr-time">
            <valueDateTime value="2017-10-03T16:09:00+01:00"/>
          </extension>
          <reference value="Practitioner/62727069-d7c1-463c-87a7-7bf0d19581be"/>
        </author>
        <author>
          <reference value="Organization/06deb61c-1917-4d72-8de7-d0d7a1cd6526"/>
        </author>
        <title value="Zuweisung zur Radiologischen Diagnostik"/>
        <confidentiality value="N">
          <extension url="http://fhir.ch/ig/ch-core/StructureDefinition/ch-ext-epr-confidentialitycode">
            <valueCodeableConcept>
              <coding>
                <system value="http://snomed.info/sct"/>
                <code value="17621005"/>
                <display value="Normally accessible"/>
              </coding>
            </valueCodeableConcept>
          </extension>
        </confidentiality>
        <attester>
          <mode value="legal"/>
          <time value="2017-10-03"/>
          <party>
            <reference value="Practitioner/ff3e3254-939a-434e-b808-7783442b2a70"/>
          </party>
        </attester>
        <custodian>
          <reference value="Organization/6977df6a-727e-4b08-bc66-9b7b48669627"/>
        </custodian>
        <section>
          <title value="Gew&#xFC;nschte Untersuchung"/>
          <text>
            <status value="generated"/>
            <div xmlns="http://www.w3.org/1999/xhtml">
              <span>
							Der Patient erwartet Ihr Aufgebot zur Untersuchung.
                <br/>
              </span>
              <span style="font-style: italic">
							Spezifizierung der gewünschten Untersuchung
                <br/>
              </span>
            </div>
          </text>
        </section>
        <section>
          <title value="Dringlichkeit / Wunschtermin"/>
          <text>
            <status value="generated"/>
            <div xmlns="http://www.w3.org/1999/xhtml">
              <span style="font-style: italic">
							Angaben zum gewünschten Termin
              </span>
            </div>
          </text>
        </section>
        <section>
          <title value="Fragestellung"/>
          <text>
            <status value="generated"/>
            <div xmlns="http://www.w3.org/1999/xhtml">
              <span style="font-style: italic">
							Grund für die Durchführung der Untersuchung und Angaben zum aktuellen Leiden resp. zum Grund der Untersuchung
              </span>
            </div>
          </text>
        </section>
        <section>
          <title value="Angaben zum Patienten"/>
          <text>
            <status value="generated"/>
            <div xmlns="http://www.w3.org/1999/xhtml">
              <span style="font-style: italic">
							Erfolgte Voruntersuchungen
                <br/>
							Befundkopie – Empfänger
                <br/>
              </span>
            </div>
          </text>
        </section>
        <section>
          <title value="Klinische Angaben"/>
          <text>
            <status value="generated"/>
            <div xmlns="http://www.w3.org/1999/xhtml">
              <span style="font-style: italic">
							Beschreibung des aktuellen Leidens
                <br/>
							Schwangerschaft ja / nein
                <br/>
							Laborwerte (Quick / Tc, Kreatinin)
                <br/>
							Bekannte Allergien
                <br/>
              </span>
            </div>
          </text>
        </section>
      </Composition>
    </resource>
  </entry>
  <entry>
    <resource>
      <Patient>
        <id value="5fe298e8-b993-424f-9a09-78d1f07d7c20"/>
        <identifier>
          <system value="urn:oid:2.16.756.888888.3.1"/>
          <value value="8733"/>
        </identifier>
        <name>
          <family value="MUSTER"/>
          <given value="Max"/>
        </name>
        <telecom>
          <system value="phone"/>
          <value value="+41.32.685.12.34"/>
          <use value="home"/>
        </telecom>
        <telecom>
          <system value="phone"/>
          <value value="+41.32.123.77.88"/>
          <use value="work"/>
        </telecom>
        <telecom>
          <system value="email"/>
          <value value="max.muster@sampledomain.ch"/>
          <use value="work"/>
        </telecom>
        <gender value="male"/>
        <birthDate value="1938-12-12"/>
        <address>
          <line value="Leidensweg"/>
          <line value="10"/>
          <city value="Specimendorf"/>
          <postalCode value="9999"/>
          <country value="CH"/>
        </address>
        <managingOrganization>
          <reference value="Organization/c976eb95-ce71-439d-a197-078ac6b1849a"/>
        </managingOrganization>
      </Patient>
    </resource>
  </entry>
  <entry>
    <resource>
      <Organization>
        <id value="c976eb95-ce71-439d-a197-078ac6b1849a"/>
        <identifier>
          <system value="urn:oid:2.51.1.3"/>
          <value value="7601000201041"/>
        </identifier>
        <name value="Gruppenpraxis CH, Dr. med. Allzeit Bereit"/>
      </Organization>
    </resource>
  </entry>
  <entry>
    <resource>
      <Practitioner>
        <id value="62727069-d7c1-463c-87a7-7bf0d19581be"/>
        <identifier>
          <system value="urn:oid:2.51.1.3"/>
          <value value="7601000201041"/>
        </identifier>
        <name>
          <family value="Bereit"/>
          <given value="Allzeit"/>
          <prefix value="Dr. med."/>
          <suffix value="Facharzt f&#xFC;r Allgemeine Medizin"/>
        </name>
      </Practitioner>
    </resource>
  </entry>
  <entry>
    <resource>
      <Organization>
        <id value="06deb61c-1917-4d72-8de7-d0d7a1cd6526"/>
        <identifier>
          <system value="urn:oid:2.51.1.3"/>
          <value value="7601000201041"/>
        </identifier>
        <name value="Gruppenpraxis CH"/>
        <telecom>
          <system value="phone"/>
          <value value="+41.32.234.55.66"/>
          <use value="work"/>
        </telecom>
        <telecom>
          <system value="fax"/>
          <value value="+41.32.234.66.77"/>
          <use value="work"/>
        </telecom>
        <telecom>
          <system value="email"/>
          <value value="bereit@gruppenpraxis.ch"/>
          <use value="work"/>
        </telecom>
        <telecom>
          <system value="url"/>
          <value value="http://www.gruppenpraxis.ch"/>
          <use value="work"/>
        </telecom>
        <address>
          <line value="Doktorgasse"/>
          <line value="2"/>
          <city value="Musterhausen"/>
          <postalCode value="8888"/>
          <country value="CH"/>
        </address>
      </Organization>
    </resource>
  </entry>
  <entry>
    <resource>
      <Practitioner>
        <id value="ff3e3254-939a-434e-b808-7783442b2a70"/>
        <identifier>
          <system value="urn:oid:2.51.1.3"/>
          <value value="7601000201041"/>
        </identifier>
        <name>
          <family value="Bereit"/>
          <given value="Allzeit"/>
          <prefix value="Dr. med."/>
          <suffix value="Facharzt f&#xFC;r Allgemeine Medizin"/>
        </name>
      </Practitioner>
    </resource>
  </entry>
  <entry>
    <resource>
      <Organization>
        <id value="6977df6a-727e-4b08-bc66-9b7b48669627"/>
        <identifier>
          <system value="urn:oid:2.51.1.3"/>
          <value value="7601000201041"/>
        </identifier>
        <name value="Gruppenpraxis CH, Dr. med. Allzeit Bereit, Facharzt f&#xFC;r Allgemeine Medizin"/>
        <address>
          <line value="Doktorgasse"/>
          <line value="2"/>
          <city value="Musterhausen"/>
          <postalCode value="8888"/>
          <country value="CH"/>
        </address>
      </Organization>
    </resource>
  </entry>
  <entry>
    <resource>
      <Organization>
        <id value="55f9fd9f-7f45-4fbd-8130-5b37224bf59d"/>
        <name value="RoDiag Radiologieinstitut"/>
        <address>
          <line value="R&#xF6;ntgenstr."/>
          <line value="1"/>
          <city value="Musterhausen"/>
          <postalCode value="8888"/>
          <country value="CH"/>
        </address>
      </Organization>
    </resource>
  </entry>
  <entry>
    <resource>
      <Person>
        <id value="fae0243a-9800-44f5-ba5b-0fe78f5cdf51"/>
        <identifier>
          <system value="urn:oid:2.999"/>
          <value value="0812763"/>
        </identifier>
        <name>
          <family value="Kraft"/>
          <given value="Schreib"/>
        </name>
      </Person>
    </resource>
  </entry>
</Bundle>