<Bundle xmlns="http://hl7.org/fhir">
    <id value="2-3-MedicationTreatmentPlan"/>
    <meta>
        <lastUpdated value="2020-03-09T12:31:59.738+00:00"/>
        <profile value="http://fhir.ch/ig/ch-emed/StructureDefinition/ch-emed-document-medicationtreatmentplan"/>
    </meta>
    <identifier>
        <system value="urn:ietf:rfc:3986"/>
        <value value="urn:uuid:17931678-20b4-11e6-b67b-9e71128cca77"/>
    </identifier>
    <type value="document"/>
    <timestamp value="2012-02-04T14:00:00+01:00"/>
    <entry>
        <fullUrl value="http://test.fhir.ch/r4/Composition/2-3-MedicationTreatmentPlan"/>
        <resource>
            <Composition>
                <id value="2-3-MedicationTreatmentPlan"/>
                <language value="de-CH"/>
                <extension url="http://fhir.ch/ig/ch-core/StructureDefinition/ch-ext-epr-informationrecipient">
                    <valueReference>
                        <reference value="Patient/MonikaWegmuellerRecipient"/>
                    </valueReference>
                </extension>
                <identifier>
                    <system value="urn:ietf:rfc:3986"/>
                    <value value="urn:uuid:17931678-20b4-11e6-b67b-9e71128cca77"/>
                </identifier>
                <status value="final"/>
                <type>
                    <coding>
                        <system value="http://loinc.org"/>
                        <code value="77603-9"/>
                        <display value="Medication treatment plan.extended"/>
                    </coding>
                    <coding>
                        <system value="http://snomed.info/sct"/>
                        <code value="419891008"/>
                        <display value="Record artifact (record artifact)"/>
                    </coding>
                </type>
                <subject>
                    <reference value="Patient/MonikaWegmueller"/>
                </subject>
                <date value="2012-02-04T14:00:00+01:00"/>
                <author>
                    <extension url="http://fhir.ch/ig/ch-core/StructureDefinition/ch-ext-epr-time">
                        <valueDateTime value="2012-02-04T14:00:00+01:00"/>
                    </extension>
                    <reference value="Practitioner/FamilienHausarzt"/>
                </author>
                <author>
                    <reference value="Organization/Hausarzt"/>
                </author>
                <title value="Therapieentscheid Medikation"/>
                <confidentiality value="N">
                    <extension url="http://fhir.ch/ig/ch-core/StructureDefinition/ch-ext-epr-confidentialitycode">
                        <valueCodeableConcept>
                            <coding>
                                <system value="http://snomed.info/sct"/>
                                <code value="17621005"/>
                                <display value="Normally accessible"/>
                            </coding>
                        </valueCodeableConcept>
                    </extension>
                </confidentiality>
                <custodian>
                    <reference value="Organization/Custodian"/>
                </custodian>
                <section>
                    <title value="Medikamentöser Behandlungsplan"/>
                    <code>
                        <coding>
                            <system value="http://loinc.org"/>
                            <code value="77604-7"/>
                            <display value="Medication treatment plan.brief"/>
                        </coding>
                    </code>
                    <text>
                        <status value="generated"/>
                        <div xmlns="http://www.w3.org/1999/xhtml">
                            <table>
                                <thead>
                                    <tr>
                                        <th>Präpartename</th>
                                        <th>Wirkstoffname</th>
                                        <th>Galenische Form</th>
                                        <th>Dosis pro Einheit</th>
                                        <th>Dos.Morgen</th>
                                        <th>Dos.Mittag</th>
                                        <th>Dos.Abend</th>
                                        <th>Dos.Nacht</th>
                                        <th>Verabreichungsweg</th>
                                        <th>Kommentar</th>
                                        <th>Anwendungsdauer</th>
                                        <th>Behandlungsgrund</th>
                                    </tr>
                                </thead>
                                <tbody>
                                    <tr id="mtp.1">
                                        <td id="mtp.1.brandedmedication">Beloc Zok</td>
                                        <td id="mtp.1.ingredient">Metoprolol</td>
                                        <td id="mtp.1.packageform"> Ret Tbl</td>
                                        <td id="mtp.1.dosequantity">50 mg</td>
                                        <td id="mtp.1.dosagemorning">1</td>
                                        <td id="mtp.1.dosagelunch">0</td>
                                        <td id="mtp.1.dosageevening">0.5</td>
                                        <td id="mtp.1.dosagenight">0</td>
                                        <td id="mtp.1.routecode">oral</td>
                                        <td id="mtp.1.note"></td>
                                        <td id="mtp.1.datefromto"></td>
                                        <td id="mtp.1.reason">Bluthochdruck</td>
                                    </tr>
                                </tbody>
                            </table>
                        </div>
                    </text>
                    <entry>
                        <reference value="MedicationStatement/2-3-MedStatBeloczok"/>
                    </entry>
                </section>
            </Composition>
        </resource>
    </entry>
    <entry>
        <fullUrl value="http://test.fhir.ch/r4/Patient/MonikaWegmueller"/>
        <resource>
            <Patient>
                <id value="MonikaWegmueller"/>
                <identifier>
                    <type>
                        <coding>
                            <system value="http://terminology.hl7.org/CodeSystem/v2-0203"/>
                            <code value="MR"/>
                        </coding>
                    </type>
                    <system value="urn:oid:2.999.1"/>
                    <value value="11111111"/>
                </identifier>
                <name>
                    <family value="Wegmüller"/>
                    <given value="Monika"/>
                </name>
                <gender value="female"/>
                <birthDate value="1943-05-15"/>
                <address>
                    <line value="Wiesenstr. 12"/>
                    <city value="Zürich"/>
                    <postalCode value="8003"/>
                    <country value="CH"/>
                </address>
            </Patient>
        </resource>
    </entry>
    <entry>
        <fullUrl value="http://test.fhir.ch/r4/Practitioner/FamilienHausarzt"/>
        <resource>
            <Practitioner>
                <id value="FamilienHausarzt"/>
                <identifier>
                    <system value="urn:oid:2.51.1.3"/>
                    <value value="7601000234438"/>
                </identifier>
                <name>
                    <family value="Hausarzt"/>
                    <given value="Familien"/>
                </name>
                <address>
                    <line value="Krankenstrasse 2"/>
                    <city value="Zürich"/>
                    <postalCode value="8005"/>
                    <country value="CH"/>
                </address>
            </Practitioner>
        </resource>
    </entry>
    <entry>
        <fullUrl value="http://test.fhir.ch/r4/Organization/Hausarzt"/>
        <resource>
            <Organization>
                <id value="Hausarzt"/>
                <identifier>
                    <system value="urn:oid:2.51.1.3"/>
                    <value value="7601000234438"/>
                </identifier>
                <name value="Hausarzt"/>

                <address>
                    <line value="Krankenstrasse 2"/>
                    <city value="Zürich"/>
                    <postalCode value="8005"/>
                    <country value="CH"/>
                </address>
            </Organization>
        </resource>
    </entry>
    <entry>
        <fullUrl value="http://test.fhir.ch/r4/Organization/Custodian"/>
        <resource>
            <Organization>
                <id value="Custodian"/>
                <identifier>
                    <system value="urn:oid:2.51.1.3"/>
                    <value value="7601000234438"/>
                </identifier>
                <name value="Hausarzt"/>
            </Organization>
        </resource>
    </entry>
    <entry>
        <fullUrl value="http://test.fhir.ch/r4/Patient/MonikaWegmuellerRecipient"/>
        <resource>
            <Patient>
                <id value="MonikaWegmuellerRecipient"/>
                <name>
                    <family value="Wegmüller"/>
                    <given value="Monika"/>
                </name>
                <address>
                    <line value="Wiesenstr. 12"/>
                    <city value="Zürich"/>
                    <postalCode value="8003"/>
                    <country value="CH"/>
                </address>
            </Patient>
        </resource>
    </entry>
    <entry>
        <fullUrl value="http://test.fhir.ch/r4/MedicationStatement/2-3-MedStatBeloczok"/>
        <resource>
            <MedicationStatement>
                <id value="2-3-MedStatBeloczok"/>
                <contained>
                    <Medication>
                        <id value="med"/>
                        <code>
                            <extension url="http://hl7.org/fhir/StructureDefinition/narrativeLink">
                                <valueUrl value="#mtp.1"/>
                            </extension>
                            <coding>
                                <system value="urn:oid:2.51.1.1"/>
                                <code value="7680521101306"/>
                                <display value="BELOC ZOK Ret Tabl 50 mg 30 Stk"/>
                            </coding>
                            <text value="BELOC ZOK Ret Tabl 50 mg"/>
                        </code>
                        <form>
                            <coding>
                                <system value="urn:oid:0.4.0.127.0.16.1.1.2.1"/>
                                <code value="10219000"/>
                                <display value="Tablet"/>
                            </coding>
                        </form>
                        <amount>
                            <numerator>
                                <value value="30"/>
                                <unit value="Tablet (unit of presentation)"/>
                                <system value="http://snomed.info/sct"/>
                                <code value="732936001"/>
                            </numerator>
                            <denominator>
                                <value value="1"/>
                                <unit value="Package"/>
                                <system value="http://unitsofmeasure.org"/>
                                <code value="{Package}"/>
                            </denominator>
                        </amount>
                        <ingredient>
                            <itemCodeableConcept>
                                <coding>
                                    <system value="http://snomed.info/sct"/>
                                    <code value="372826007"/>
                                    <display value="Metoprolol (substance)"/>
                                </coding>
                                <text value="Metoprolol"/>
                            </itemCodeableConcept>
                            <strength>
                                <numerator>
                                    <value value="50"/>
                                    <unit value="milligram"/>
                                    <system value="http://unitsofmeasure.org"/>
                                    <code value="mg"/>
                                </numerator>
                                <denominator>
                                    <value value="1"/>
                                    <unit value="Tablet (unit of presentation)"/>
                                    <system value="http://snomed.info/sct"/>
                                    <code value="732936001"/>
                                </denominator>
                            </strength>
                        </ingredient>
                    </Medication>
                </contained>
                <extension url="http://hl7.org/fhir/StructureDefinition/narrativeLink">
                    <valueUrl value="#mtp.1"/>
                </extension>
                <identifier>
                    <system value="urn:ietf:rfc:3986"/>
                    <value value="urn:uuid:17931678-20b4-11e6-b67b-9e71128cca77"/>
                </identifier>
                <status value="completed"/>
                <medicationReference>
                    <reference value="#med"/>
                </medicationReference>
                <subject>
                    <reference value="Patient/MonikaWegmueller"/>
                </subject>
                <reasonCode>
                    <extension url="http://hl7.org/fhir/StructureDefinition/narrativeLink">
                        <valueUrl value="#mtp.1.reason"/>
                    </extension>
                    <text value="Bluthochdruck"/>
                </reasonCode>
                <dosage>
                    <sequence value="1"/>
                    <patientInstruction value="-"/>
                    <timing>
                        <repeat>
                            <boundsPeriod>
                                <start value="2012-02-04"/>
                            </boundsPeriod>
                            <when value="MORN"/>
                        </repeat>
                    </timing>
                    <route>
                        <coding>
                            <system value="urn:oid:0.4.0.127.0.16.1.1.2.1"/>
                            <code value="20053000"/>
                            <display value="Oral use"/>
                        </coding>
                    </route>
                    <doseAndRate>
                        <doseQuantity>
                            <value value="1"/>
                            <unit value="Tablet (unit of presentation)"/>
                            <system value="http://snomed.info/sct"/>
                            <code value="732936001"/>
                        </doseQuantity>
                    </doseAndRate>
                </dosage>
                <dosage>
                    <sequence value="2"/>
                    <patientInstruction value="-"/>
                    <timing>
                        <repeat>
                            <boundsPeriod>
                                <start value="2012-02-04"/>
                            </boundsPeriod>
                            <when value="EVE"/>
                        </repeat>
                    </timing>
                    <route>
                        <coding>
                            <system value="urn:oid:0.4.0.127.0.16.1.1.2.1"/>
                            <code value="20053000"/>
                            <display value="Oral use"/>
                        </coding>
                    </route>
                    <doseAndRate>
                        <doseQuantity>
                            <value value="0.5"/>
                            <unit value="Tablet (unit of presentation)"/>
                            <system value="http://snomed.info/sct"/>
                            <code value="732936001"/>
                        </doseQuantity>
                    </doseAndRate>
                </dosage>
            </MedicationStatement>
        </resource>
    </entry>
</Bundle>