<?xml version="1.0" encoding="UTF-8"?>
<Bundle xmlns="http://hl7.org/fhir">
   <id value="2-6-MedicationPrescription"/>
   <meta>
      <lastUpdated value="2020-02-21T12:31:59.738+00:00"/>
      <profile value="http://fhir.ch/ig/ch-emed/StructureDefinition/ch-emed-document-medicationprescription"/>
   </meta>
   <identifier>
      <system value="urn:ietf:rfc:3986"/>
      <value value="urn:uuid:d41d72ba-2100-11e6-b67b-9e71128cae77"/>
   </identifier>
   <type value="document"/>
   <timestamp value="2012-02-04T14:00:00+01:00"/>
   <entry>
      <fullUrl value="http://test.fhir.ch/r4/Composition/2-6-MedicationPrescription"/>
      <resource>
         <Composition>
            <id value="2-6-MedicationPrescription"/>
            <language value="de-CH"/>
            <extension url="http://fhir.ch/ig/ch-core/StructureDefinition/ch-ext-epr-informationrecipient">
               <valueReference>
                  <reference value="Patient/MonikaWegmuellerRecipient"/>
               </valueReference>
            </extension>
            <identifier>
               <system value="urn:ietf:rfc:3986"/>
               <value value="urn:uuid:d41d72ba-2100-11e6-b67b-9e71128cae77"/>
            </identifier>
            <status value="final"/>
            <type>
               <coding>
                  <system value="http://loinc.org"/>
                  <code value="57833-6"/>
                  <display value="Prescription for medication"/>
               </coding>
               <coding>
                  <system value="http://snomed.info/sct"/>
                  <code value="761938008"/>
                  <display value="Medicinal prescription record (record artifact)"/>
               </coding>
            </type>
            <subject>
               <reference value="Patient/MonikaWegmueller"/>
            </subject>
            <date value="2012-02-04T14:00:00+01:00"/>
            <author>
               <extension url="http://fhir.ch/ig/ch-core/StructureDefinition/ch-ext-epr-time">
                  <valueDateTime value="2012-02-04T14:00:00+01:00"/>
               </extension>
               <reference value="Practitioner/FamilienHausarzt"/>
            </author>
            <author>
               <reference value="Organization/Hausarzt"/>
            </author>
            <title value="Rezept"/>
            <confidentiality value="N">
               <extension url="http://fhir.ch/ig/ch-core/StructureDefinition/ch-ext-epr-confidentialitycode">
                  <valueCodeableConcept>
                     <coding>
                        <system value="http://snomed.info/sct"/>
                        <code value="17621005"/>
                        <display value="Normally accessible"/>
                     </coding>
                  </valueCodeableConcept>
               </extension>
            </confidentiality>
            <custodian>
               <reference value="Organization/Custodian"/>
            </custodian>
            <section>
               <title value="Arzneimittelverordnung"/>
               <code>
                  <coding>
                     <system value="http://loinc.org"/>
                     <code value="57828-6"/>
                     <display value="PRESCRIPTIONS"/>
                  </coding>
               </code>
               <entry>
                  <reference value="MedicationRequest/2-6-MedReqNorvasc"/>
               </entry>
            </section>
            <section>
               <title value="Kommentar"/>
               <code>
                  <coding>
                     <system value="http://loinc.org"/>
                     <code value="48767-8"/>
                     <display value="Annotation comment"/>
                  </coding>
               </code>
               <text>
                  <status value="generated"/>
                  <div xmlns="http://www.w3.org/1999/xhtml">
                     <span id="co1">
						Kommentar zu Medication Prescription
                     </span>
                  </div>
               </text>
            </section>
            <section>
               <title value="Original Darstellung"/>
               <code>
                  <coding>
                     <system value="http://loinc.org"/>
                     <code value="55108-5"/>
                     <display value="Clinical presentation"/>
                  </coding>
               </code>
               <text>
                  <status value="generated"/>
                  <div xmlns="http://www.w3.org/1999/xhtml">
                     <a href="Binary/2-6-pdf">Representation of the original view</a>
                  </div>
               </text>
               <entry>
                  <reference value="Binary/2-6-pdf"/>
               </entry>
            </section>
         </Composition>
      </resource>
   </entry>
   <entry>
      <fullUrl value="http://test.fhir.ch/r4/Patient/MonikaWegmueller"/>
      <resource>
         <Patient>
            <id value="MonikaWegmueller"/>
            <identifier>
               <type>
                  <coding>
                     <system value="http://terminology.hl7.org/CodeSystem/v2-0203"/>
                     <code value="MR"/>
                  </coding>
               </type>
               <system value="urn:oid:2.999.1"/>
               <value value="11111111"/>
            </identifier>
            <name>
               <family value="Wegmüller"/>
               <given value="Monika"/>
            </name>
            <gender value="female"/>
            <birthDate value="1943-05-15"/>
            <address>
               <line value="Wiesenstr. 12"/>
               <city value="Zürich"/>
               <postalCode value="8003"/>
               <country value="CH"/>
            </address>
         </Patient>
      </resource>
   </entry>
   <entry>
      <fullUrl value="http://test.fhir.ch/r4/Practitioner/FamilienHausarzt"/>
      <resource>
         <Practitioner>
            <id value="FamilienHausarzt"/>
            <identifier>
               <system value="urn:oid:2.51.1.3"/>
               <value value="7601000234438"/>
            </identifier>
            <name>
               <family value="Hausarzt"/>
               <given value="Familien"/>
            </name>
            <address>
               <line value="Krankenstrasse 2"/>
               <city value="Zürich"/>
               <postalCode value="8005"/>
               <country value="CH"/>
            </address>
         </Practitioner>
      </resource>
   </entry>
   <entry>
      <fullUrl value="http://test.fhir.ch/r4/Organization/Hausarzt"/>
      <resource>
         <Organization>
            <id value="Hausarzt"/>
            <identifier>
               <system value="urn:oid:2.51.1.3"/>
               <value value="7601000234438"/>
            </identifier>
            <name value="Hausarzt"/>
            <address>
               <line value="Krankenstrasse 2"/>
               <city value="Zürich"/>
               <postalCode value="8005"/>
               <country value="CH"/>
            </address>
         </Organization>
      </resource>
   </entry>
   <entry>
      <fullUrl value="http://test.fhir.ch/r4/Organization/Custodian"/>
      <resource>
         <Organization>
            <id value="Custodian"/>
            <identifier>
               <system value="urn:oid:2.51.1.3"/>
               <value value="7601000234438"/>
            </identifier>
            <name value="Hausarzt"/>
         </Organization>
      </resource>
   </entry>
   <entry>
      <fullUrl value="http://test.fhir.ch/r4/Patient/MonikaWegmuellerRecipient"/>
      <resource>
         <Patient>
            <id value="MonikaWegmuellerRecipient"/>
            <name>
               <family value="Wegmüller"/>
               <given value="Monika"/>
            </name>
            <address>
               <line value="Wiesenstr. 12"/>
               <city value="Zürich"/>
               <postalCode value="8003"/>
               <country value="CH"/>
            </address>
         </Patient>
      </resource>
   </entry>
   <entry>
      <fullUrl value="http://test.fhir.ch/r4/MedicationRequest/2-6-MedReqNorvasc"/>
      <resource>
         <MedicationRequest>
            <id value="2-6-MedReqNorvasc"/>
            <contained>
               <Medication>
                  <id value="med"/>
                  <code>
                     <coding>
                        <system value="urn:oid:2.51.1.1"/>
                        <code value="7680500440334"/>
                        <display value="NORVASC Tabl 10 mg"/>
                     </coding>
                     <text value="NORVASC Tabl 10 mg"/>
                  </code>
                  <form>
                     <coding>
                        <system value="urn:oid:0.4.0.127.0.16.1.1.2.1"/>
                        <code value="10219000"/>
                        <display value="Tablet"/>
                     </coding>
                  </form>
                  <amount>
                     <numerator>
                        <value value="30"/>
                        <unit value="Tablet (unit of presentation)"/>
                        <system value="http://snomed.info/sct"/>
                        <code value="732936001"/>
                     </numerator>
                     <denominator>
                        <value value="1"/>
                        <unit value="Package"/>
                        <system value="http://unitsofmeasure.org"/>
                        <code value="{Package}"/>
                     </denominator>
                  </amount>
                  <ingredient>
                     <itemCodeableConcept>
                        <coding>
                           <system value="http://snomed.info/sct"/>
                           <code value="386864001"/>
                           <display value="Amlodipine (substance)"/>
                        </coding>
                        <text value="Amlodipine"/>
                     </itemCodeableConcept>
                     <strength>
                        <numerator>
                           <value value="10"/>
                           <unit value="milligram"/>
                           <system value="http://unitsofmeasure.org"/>
                           <code value="mg"/>
                        </numerator>
                        <denominator>
                           <value value="1"/>
                           <unit value="Tablet (unit of presentation)"/>
                           <system value="http://snomed.info/sct"/>
                           <code value="732936001"/>
                        </denominator>
                     </strength>
                  </ingredient>
               </Medication>
            </contained>
            <extension url="http://fhir.ch/ig/ch-emed/StructureDefinition/ch-emed-ext-treatmentplan">
               <extension url="id">
                  <valueIdentifier>
                     <system value="urn:ietf:rfc:3986"/>
                     <value value="urn:uuid:5712fffe-20c6-11e6-b67b-9e71128cae77"/>
                  </valueIdentifier>
               </extension>
               <extension url="externalDocumentId">
                  <valueIdentifier>
                     <system value="urn:ietf:rfc:3986"/>
                     <value value="urn:uuid:5712fffe-20c6-11e6-b67b-9e71128cae77"/>
                  </valueIdentifier>
               </extension>
            </extension>
            <identifier>
               <system value="urn:ietf:rfc:3986"/>
               <value value="urn:uuid:d41d72ba-2100-11e6-b67b-9e71128cae77"/>
            </identifier>
            <status value="completed"/>
            <intent value="order"/>
            <medicationReference>
               <reference value="#med"/>
            </medicationReference>
            <subject>
               <reference value="Patient/MonikaWegmueller"/>
            </subject>
            <reasonCode>
               <text value="-"/>
            </reasonCode>
            <dosageInstruction>
               <patientInstruction value="-"/>
               <timing>
                  <repeat>
                     <boundsPeriod>
                        <start value="2012-02-04"/>
                     </boundsPeriod>
                     <when value="MORN"/>
                     <when value="EVE"/>
                  </repeat>
               </timing>
               <route>
                  <coding>
                     <system value="urn:oid:0.4.0.127.0.16.1.1.2.1"/>
                     <code value="20053000"/>
                     <display value="Oral use"/>
                  </coding>
               </route>
               <doseAndRate>
                  <doseQuantity>
                     <value value="1"/>
                     <unit value="Tablet (unit of presentation)"/>
                     <system value="http://snomed.info/sct"/>
                     <code value="732936001"/>
                  </doseQuantity>
               </doseAndRate>
            </dosageInstruction>
            <dispenseRequest>
               <validityPeriod>
                  <start value="2012-02-04"/>
                  <end value="2012-05-03"/>
               </validityPeriod>
            </dispenseRequest>
            <!-- substitution just as test case 
            <substitution>
               <allowedCodeableConcept>
                  <coding>
                     <system value="http://terminology.hl7.org/CodeSystem/v3-substanceAdminSubstitution"/>
                     <code value="E"/>
                     <display value="equivalent"/>
                  </coding>
               </allowedCodeableConcept>
            </substitution> -->
         </MedicationRequest>
      </resource>
   </entry>
   <entry>
      <fullUrl value="http://test.fhir.ch/r4/Binary/2-6-pdf"/>
      <resource>
         <Binary>
            <id value="2-6-pdf"/>
            <language value="de-CH"/>
            <contentType value="application/pdf"/>
            <data value=""/>
         </Binary>
      </resource>
   </entry>
</Bundle>