{
  "resourceType": "Bundle",
  "id": "1-1-MTPDafalgan",
  "meta": {
    "profile": [
      "http://fhir.ch/ig/ch-emed/StructureDefinition/ch-emed-document-medicationtreatmentplan"
    ]
  },
  "identifier": {
    "system": "urn:ietf:rfc:3986",
    "value": "urn:uuid:45c6b4d4-19e7-4ae9-9809-37ec009deaec"
  },
  "type": "document",
  "timestamp": "2019-02-12T11:00:00+01:00",
  "entry": [
    {
      "fullUrl": "http://test.fhir.ch/r4/Composition/1-1-CompDafalgan",
      "resource": {
        "resourceType": "Composition",
        "id": "1-1-CompDafalgan",
        "meta": {
          "profile": [
            "http://fhir.ch/ig/ch-emed/StructureDefinition/ch-emed-composition-medicationtreatmentplan"
          ]
        },
        "language": "fr-CH",
        "text": {
          "status": "extensions",
          "div": "<div xmlns=\"http://www.w3.org/1999/xhtml\" xml:lang=\"fr-CH\" lang=\"fr-CH\"><p><b>Generated Narrative</b></p><div style=\"display: inline-block; background-color: #d9e0e7; padding: 6px; margin: 4px; border: 1px solid #8da1b4; border-radius: 5px; line-height: 60%\"><p style=\"margin-bottom: 0px\">Resource \"1-1-CompDafalgan\"  (Language \"fr-CH\") </p><p style=\"margin-bottom: 0px\">Profile: <a href=\"http://fhir.ch/ig/ch-emed/2.1.0/StructureDefinition-ch-emed-composition-medicationtreatmentplan.html\">CH EMED Medication Treatment Plan Composition</a></p></div><p><b>EPR Information Recipient</b>: <a href=\"#Patient_MadameDupontInformationRecipient\">See above (Patient/MadameDupontInformationRecipient)</a></p><p><b>identifier</b>: id: urn:uuid:45c6b4d4-19e7-4ae9-9809-37ec009deaec</p><p><b>status</b>: final</p><p><b>type</b>: Medication treatment plan.extended <span style=\"background: LightGoldenRodYellow; margin: 4px; border: 1px solid khaki\"> (<a href=\"https://loinc.org/\">LOINC</a>#77603-9; <a href=\"https://browser.ihtsdotools.org/\">SNOMED CT</a>#419891008 \"Record artifact (record artifact)\")</span></p><p><b>date</b>: 2019-02-12 11:00:00+0100</p><p><b>author</b>: <a href=\"#Practitioner_DoctorRochat\">See above (Practitioner/DoctorRochat)</a></p><p><b>title</b>: Décision thérapeutique relative à la médication</p><p><b>confidentiality</b>: N</p><p><b>custodian</b>: <a href=\"#Organization_GeneralPractitioner\">See above (Organization/GeneralPractitioner)</a></p></div>"
        },
        "extension": [
          {
            "url": "http://fhir.ch/ig/ch-core/StructureDefinition/ch-ext-epr-informationrecipient",
            "valueReference": {
              "reference": "Patient/MadameDupontInformationRecipient"
            }
          }
        ],
        "identifier": {
          "system": "urn:ietf:rfc:3986",
          "value": "urn:uuid:45c6b4d4-19e7-4ae9-9809-37ec009deaec"
        },
        "status": "final",
        "type": {
          "coding": [
            {
              "system": "http://loinc.org",
              "code": "77603-9",
              "display": "Medication treatment plan.extended"
            },
            {
              "system": "http://snomed.info/sct",
              "code": "419891008",
              "display": "Record artifact (record artifact)"
            }
          ]
        },
        "subject": {
          "reference": "Patient/MadameDupont"
        },
        "date": "2019-02-12T11:00:00+01:00",
        "author": [
          {
            "reference": "Practitioner/DoctorRochat"
          }
        ],
        "title": "Décision thérapeutique relative à la médication",
        "confidentiality": "N",
        "_confidentiality": {
          "extension": [
            {
              "url": "http://fhir.ch/ig/ch-core/StructureDefinition/ch-ext-epr-confidentialitycode",
              "valueCodeableConcept": {
                "coding": [
                  {
                    "system": "http://snomed.info/sct",
                    "code": "17621005",
                    "display": "Normally accessible"
                  }
                ]
              }
            }
          ]
        },
        "custodian": {
          "reference": "Organization/GeneralPractitioner"
        },
        "section": [
          {
            "title": "Plan de traitement médicamenteux",
            "code": {
              "coding": [
                {
                  "system": "http://loinc.org",
                  "code": "77604-7",
                  "display": "Medication treatment plan.brief"
                }
              ]
            },
            "text": {
              "status": "generated",
              "div": "<div xmlns=\"http://www.w3.org/1999/xhtml\"><p id=\"refpdf\">Dafalgan cpr pell 1 g, 1-1-1, dosage avancé: en réserve, raison: douleurs</p></div>"
            },
            "entry": [
              {
                "reference": "MedicationStatement/1-1-MedStatDafalgan"
              }
            ]
          }
        ]
      }
    },
    {
      "fullUrl": "http://test.fhir.ch/r4/MedicationStatement/1-1-MedStatDafalgan",
      "resource": {
        "resourceType": "MedicationStatement",
        "id": "1-1-MedStatDafalgan",
        "meta": {
          "profile": [
            "http://fhir.ch/ig/ch-emed/StructureDefinition/ch-emed-medicationstatement-treatmentplan"
          ]
        },
        "text": {
          "status": "generated",
          "div": "<div xmlns=\"http://www.w3.org/1999/xhtml\"><p><b>Generated Narrative</b></p><div style=\"display: inline-block; background-color: #d9e0e7; padding: 6px; margin: 4px; border: 1px solid #8da1b4; border-radius: 5px; line-height: 60%\"><p style=\"margin-bottom: 0px\">Resource \"1-1-MedStatDafalgan\" </p><p style=\"margin-bottom: 0px\">Profile: <a href=\"http://fhir.ch/ig/ch-emed/2.1.0/StructureDefinition-ch-emed-medicationstatement-treatmentplan.html\">CH EMED MedicationStatement (Medication Treatment Plan document)</a></p></div><p><b>identifier</b>: id: urn:uuid:ce620825-baf3-4c6c-813f-4c5ad9a85a55</p><p><b>status</b>: completed</p><p><b>medication</b>: <a name=\"MedDafalgan\"> </a></p><blockquote><div style=\"display: inline-block; background-color: #d9e0e7; padding: 6px; margin: 4px; border: 1px solid #8da1b4; border-radius: 5px; line-height: 60%\"><p style=\"margin-bottom: 0px\">Resource \"MedDafalgan\" </p><p style=\"margin-bottom: 0px\">Profile: <a href=\"http://fhir.ch/ig/ch-emed/2.1.0/StructureDefinition-ch-emed-medication.html\">CH EMED Medication</a></p></div><p><b>code</b>: DAFALGAN cpr pell 1 g blister 40 pce <span style=\"background: LightGoldenRodYellow; margin: 4px; border: 1px solid khaki\"> (unknown#7680563180079)</span></p><p><b>form</b>: Film-coated tablet <span style=\"background: LightGoldenRodYellow; margin: 4px; border: 1px solid khaki\"> (<a href=\"http://fhir.ch/ig/ch-emed/2.1.0/CodeSystem-edqm-standardterms.html\">EDQM - Standard Terms</a>#10221000)</span></p><p><b>amount</b>: 40 Piece(s)<span style=\"background: LightGoldenRodYellow\"> (Details: UCUM code {Piece} = '{Piece}')</span>/1 Package<span style=\"background: LightGoldenRodYellow\"> (Details: UCUM code {Package} = '{Package}')</span></p><h3>Ingredients</h3><table class=\"grid\"><tr><td>-</td><td><b>Item[x]</b></td><td><b>Strength</b></td></tr><tr><td>*</td><td>Paracétamol <span style=\"background: LightGoldenRodYellow; margin: 4px; border: 1px solid khaki\"> (<a href=\"https://browser.ihtsdotools.org/\">SNOMED CT</a>#387517004 \"Paracetamol (substance)\")</span></td><td>1 gram<span style=\"background: LightGoldenRodYellow\"> (Details: UCUM code g = 'g')</span>/1 Tablet (unit of presentation)<span style=\"background: LightGoldenRodYellow\"> (Details: SNOMED CT code 732936001 = 'Tablet (unit of presentation)')</span></td></tr></table></blockquote><p><b>subject</b>: <a href=\"#Patient_MadameDupont\">See above (Patient/MadameDupont)</a></p><p><b>reasonCode</b>: douleurs <span style=\"background: LightGoldenRodYellow; margin: 4px; border: 1px solid khaki\"> ()</span></p></div>"
        },
        "contained": [
          {
            "resourceType": "Medication",
            "id": "MedDafalgan",
            "meta": {
              "profile": [
                "http://fhir.ch/ig/ch-emed/StructureDefinition/ch-emed-medication"
              ]
            },
            "code": {
              "coding": [
                {
                  "system": "urn:oid:2.51.1.1",
                  "code": "7680563180079",
                  "display": "DAFALGAN cpr pell 1 g blister 40 pce"
                }
              ],
              "text": "DAFALGAN cpr pell 1 g blister 40 pce"
            },
            "form": {
              "coding": [
                {
                  "system": "urn:oid:0.4.0.127.0.16.1.1.2.1",
                  "code": "10221000",
                  "display": "Film-coated tablet"
                }
              ]
            },
            "amount": {
              "numerator": {
                "value": 40,
                "unit": "Piece(s)",
                "system": "http://unitsofmeasure.org",
                "code": "{Piece}"
              },
              "denominator": {
                "value": 1,
                "unit": "Package",
                "system": "http://unitsofmeasure.org",
                "code": "{Package}"
              }
            },
            "ingredient": [
              {
                "itemCodeableConcept": {
                  "coding": [
                    {
                      "system": "http://snomed.info/sct",
                      "code": "387517004",
                      "display": "Paracetamol (substance)"
                    }
                  ],
                  "text": "Paracétamol"
                },
                "strength": {
                  "numerator": {
                    "value": 1,
                    "unit": "gram",
                    "system": "http://unitsofmeasure.org",
                    "code": "g"
                  },
                  "denominator": {
                    "value": 1,
                    "unit": "Tablet (unit of presentation)",
                    "system": "http://snomed.info/sct",
                    "code": "732936001"
                  }
                }
              }
            ]
          }
        ],
        "identifier": [
          {
            "system": "urn:ietf:rfc:3986",
            "value": "urn:uuid:ce620825-baf3-4c6c-813f-4c5ad9a85a55"
          }
        ],
        "status": "completed",
        "medicationReference": {
          "reference": "#MedDafalgan"
        },
        "subject": {
          "reference": "Patient/MadameDupont"
        },
        "reasonCode": [
          {
            "text": "douleurs"
          }
        ],
        "dosage": [
          {
            "timing": {
              "repeat": {
                "when": [
                  "MORN",
                  "NOON",
                  "EVE"
                ]
              }
            },
            "asNeededBoolean": true,
            "route": {
              "coding": [
                {
                  "system": "urn:oid:0.4.0.127.0.16.1.1.2.1",
                  "code": "20053000",
                  "display": "Oral use"
                }
              ]
            },
            "doseAndRate": [
              {
                "doseQuantity": {
                  "value": 1,
                  "unit": "Tablet (unit of presentation)",
                  "system": "http://snomed.info/sct",
                  "code": "732936001"
                }
              }
            ]
          }
        ]
      }
    },
    {
      "fullUrl": "http://test.fhir.ch/r4/Patient/MadameDupont",
      "resource": {
        "resourceType": "Patient",
        "id": "MadameDupont",
        "meta": {
          "profile": [
            "http://fhir.ch/ig/ch-core/StructureDefinition/ch-core-patient-epr"
          ]
        },
        "text": {
          "status": "generated",
          "div": "<div xmlns=\"http://www.w3.org/1999/xhtml\"><p><b>Generated Narrative</b></p><div style=\"display: inline-block; background-color: #d9e0e7; padding: 6px; margin: 4px; border: 1px solid #8da1b4; border-radius: 5px; line-height: 60%\"><p style=\"margin-bottom: 0px\">Resource \"MadameDupont\" </p><p style=\"margin-bottom: 0px\">Profile: <a href=\"http://fhir.ch/ig/ch-core/2.1.0/StructureDefinition-ch-core-patient-epr.html\">CH Core Patient EPR</a></p></div><p><b>identifier</b>: Medical record number: 12345678</p><p><b>name</b>: Madame Dupont </p><p><b>gender</b>: female</p><p><b>birthDate</b>: 1943-05-15</p></div>"
        },
        "identifier": [
          {
            "type": {
              "coding": [
                {
                  "system": "http://terminology.hl7.org/CodeSystem/v2-0203",
                  "code": "MR"
                }
              ]
            },
            "system": "urn:oid:2.999.756.42.2",
            "value": "12345678"
          }
        ],
        "name": [
          {
            "family": "Dupont",
            "given": [
              "Madame"
            ]
          }
        ],
        "gender": "female",
        "birthDate": "1943-05-15"
      }
    },
    {
      "fullUrl": "http://test.fhir.ch/r4/Practitioner/DoctorRochat",
      "resource": {
        "resourceType": "Practitioner",
        "id": "DoctorRochat",
        "meta": {
          "profile": [
            "http://fhir.ch/ig/ch-emed/StructureDefinition/ch-emed-practitioner"
          ]
        },
        "text": {
          "status": "generated",
          "div": "<div xmlns=\"http://www.w3.org/1999/xhtml\"><p><b>Generated Narrative</b></p><div style=\"display: inline-block; background-color: #d9e0e7; padding: 6px; margin: 4px; border: 1px solid #8da1b4; border-radius: 5px; line-height: 60%\"><p style=\"margin-bottom: 0px\">Resource \"DoctorRochat\" </p><p style=\"margin-bottom: 0px\">Profile: <a href=\"http://fhir.ch/ig/ch-emed/2.1.0/StructureDefinition-ch-emed-practitioner.html\">CH EMED Practitioner</a></p></div><p><b>identifier</b>: id: 7601000201041</p><p><b>name</b>: Dr Rochat </p><p><b>address</b>: Krankenstrasse 2 Zürich 8005 CH </p></div>"
        },
        "identifier": [
          {
            "system": "urn:oid:2.51.1.3",
            "value": "7601000201041"
          }
        ],
        "name": [
          {
            "family": "Rochat",
            "given": [
              "Dr"
            ],
            "prefix": [
              "Dr. med."
            ]
          }
        ],
        "address": [
          {
            "line": [
              "Krankenstrasse 2"
            ],
            "city": "Zürich",
            "postalCode": "8005",
            "country": "CH"
          }
        ]
      }
    },
    {
      "fullUrl": "http://test.fhir.ch/r4/Organization/GeneralPractitioner",
      "resource": {
        "resourceType": "Organization",
        "id": "GeneralPractitioner",
        "meta": {
          "profile": [
            "http://fhir.ch/ig/ch-core/StructureDefinition/ch-core-organization-epr"
          ]
        },
        "text": {
          "status": "generated",
          "div": "<div xmlns=\"http://www.w3.org/1999/xhtml\"><p><b>Generated Narrative</b></p><div style=\"display: inline-block; background-color: #d9e0e7; padding: 6px; margin: 4px; border: 1px solid #8da1b4; border-radius: 5px; line-height: 60%\"><p style=\"margin-bottom: 0px\">Resource \"GeneralPractitioner\" </p><p style=\"margin-bottom: 0px\">Profile: <a href=\"http://fhir.ch/ig/ch-core/2.1.0/StructureDefinition-ch-core-organization-epr.html\">CH Core Organization EPR</a></p></div><p><b>identifier</b>: id: 7601000201041</p><p><b>name</b>: Médecin de famille</p><p><b>address</b>: Krankenstrasse 2 Zürich 8005 CH </p></div>"
        },
        "identifier": [
          {
            "system": "urn:oid:2.51.1.3",
            "value": "7601000201041"
          }
        ],
        "name": "Médecin de famille",
        "address": [
          {
            "line": [
              "Krankenstrasse 2"
            ],
            "city": "Zürich",
            "postalCode": "8005",
            "country": "CH"
          }
        ]
      }
    },
    {
      "fullUrl": "http://test.fhir.ch/r4/Patient/MadameDupontInformationRecipient",
      "resource": {
        "resourceType": "Patient",
        "id": "MadameDupontInformationRecipient",
        "meta": {
          "profile": [
            "http://fhir.ch/ig/ch-core/StructureDefinition/ch-core-patient"
          ]
        },
        "text": {
          "status": "generated",
          "div": "<div xmlns=\"http://www.w3.org/1999/xhtml\"><p><b>Generated Narrative</b></p><div style=\"display: inline-block; background-color: #d9e0e7; padding: 6px; margin: 4px; border: 1px solid #8da1b4; border-radius: 5px; line-height: 60%\"><p style=\"margin-bottom: 0px\">Resource \"MadameDupontInformationRecipient\" </p><p style=\"margin-bottom: 0px\">Profile: <a href=\"http://fhir.ch/ig/ch-core/2.1.0/StructureDefinition-ch-core-patient.html\">CH Core Patient</a></p></div><p><b>name</b>: Madame Dupont </p><p><b>address</b>: Wiesenstr. 12 Zürich 8003 CH </p></div>"
        },
        "name": [
          {
            "family": "Dupont",
            "given": [
              "Madame"
            ]
          }
        ],
        "address": [
          {
            "line": [
              "Wiesenstr. 12"
            ],
            "city": "Zürich",
            "postalCode": "8003",
            "country": "CH"
          }
        ]
      }
    }
  ]
}