{
  "resourceType": "Bundle",
  "language": "en-US",
  "identifier": {
    "system": "urn:ietf:rfc:3986",
    "value": "urn:uuid:53271cc9-b762-4f16-9f62-8212a8d2e97f"
  },
  "type": "document",
  "timestamp": "2022-05-20T10:53:37.603-04:00",
  "entry": [
    {
      "fullUrl": "urn:uuid:fe90532b-2f1d-4984-8922-3f58e16c69de",
      "resource": {
        "resourceType": "Composition",
        "language": "en-US",
        "extension": [
          {
            "id": "InformationRecipient/MAGMED005",
            "url": "http://fhir.ch/ig/ch-core/StructureDefinition/ch-ext-epr-informationrecipient",
            "valueReference": {
              "reference": "urn:uuid:306b7825-09ec-4f94-a5cf-021c749321e2"
            }
          }
        ],
        "identifier": {
          "system": "urn:ietf:rfc:3986",
          "value": "urn:uuid:53271cc9-b762-4f16-9f62-8212a8d2e97f"
        },
        "status": "final",
        "type": {
          "coding": [
            {
              "system": "http://snomed.info/sct",
              "code": "419891008",
              "display": "Record artifact (record artifact)"
            },
            {
              "system": "http://loinc.org",
              "code": "77603-9",
              "display": "Medication treatment plan.extended"
            }
          ]
        },
        "subject": {
          "reference": "urn:uuid:306b7825-09ec-4f94-a5cf-021c749321e2"
        },
        "date": "2022-05-20T10:53:37-04:00",
        "author": [
          {
            "reference": "urn:uuid:3d8d0d0e-0711-4d13-ab3e-6eecc621a14d"
          }
        ],
        "title": "Medication Treatment Plan",
        "confidentiality": "N",
        "_confidentiality": {
          "extension": [
            {
              "url": "http://fhir.ch/ig/ch-core/StructureDefinition/ch-ext-epr-confidentialitycode",
              "valueCodeableConcept": {
                "coding": [
                  {
                    "system": "http://snomed.info/sct",
                    "code": "17621005",
                    "display": "Normally accessible"
                  }
                ]
              }
            }
          ]
        },
        "custodian": {
          "reference": "urn:uuid:6c47f43c-5ce7-4e5e-8b26-74182eef4f28"
        },
        "section": [
          {
            "id": "MedicationTreatmentPlan/New",
            "title": "Medication Treatment Plan",
            "code": {
              "coding": [
                {
                  "system": "http://loinc.org",
                  "code": "77604-7",
                  "display": "Medication treatment plan.brief"
                }
              ]
            },
            "entry": [
              {
                "reference": "urn:uuid:00ddbe06-4db5-4068-a0fe-aaec162b0982"
              }
            ]
          }
        ]
      }
    },
    {
      "fullUrl": "urn:uuid:306b7825-09ec-4f94-a5cf-021c749321e2",
      "resource": {
        "resourceType": "Patient",
        "identifier": [
          {
            "type": {
              "coding": [
                {
                  "system": "http://terminology.hl7.org/CodeSystem/v2-0203",
                  "code": "MR"
                }
              ]
            },
            "system": "urn:oid:2.16.756.5.30.1.196.3.2.1",
            "value": "MAGMED005"
          }
        ],
        "active": true,
        "name": [
          {
            "family": "Behluli-Qazimi",
            "given": [
              "Leandra Corina"
            ]
          }
        ],
        "gender": "female",
        "birthDate": "2002-12-21"
      }
    },
    {
      "fullUrl": "urn:uuid:00ddbe06-4db5-4068-a0fe-aaec162b0982",
      "resource": {
        "resourceType": "MedicationStatement",
        "contained": [
          {
            "resourceType": "Medication",
            "id": "med",
            "code": {
              "coding": [
                {
                  "system": "urn:oid:2.51.1.1",
                  "code": "GTIN1234",
                  "display": "Paracétamol et Codéine phosphate"
                }
              ],
              "text": "Paracétamol et Codéine phosphate"
            }
          }
        ],
        "identifier": [
          {
            "system": "urn:ietf:rfc:3986",
            "value": "urn:uuid:e628a0a2-11b1-4e71-a22d-2e5cedf5e07d"
          }
        ],
        "status": "active",
        "medicationReference": {
          "reference": "#med"
        },
        "subject": {
          "reference": "urn:uuid:306b7825-09ec-4f94-a5cf-021c749321e2"
        },
        "dosage": [
          {
            "text": "1 cpr eff cpr eff 1 x / j Daily"
          }
        ]
      }
    },
    {
      "fullUrl": "urn:uuid:3d8d0d0e-0711-4d13-ab3e-6eecc621a14d",
      "resource": {
        "resourceType": "Practitioner",
        "identifier": [
          {
            "system": "urn:oid:2.51.1.3",
            "value": "0987654321"
          }
        ],
        "name": [
          {
            "family": "Orders",
            "given": [
              "Doctor24"
            ]
          }
        ]
      }
    },
    {
      "fullUrl": "urn:uuid:6c47f43c-5ce7-4e5e-8b26-74182eef4f28",
      "resource": {
        "resourceType": "Organization",
        "identifier": [
          {
            "system": "urn:oid:2.51.1.3",
            "value": "1234567890"
          }
        ],
        "name": "FHV"
      }
    }
  ]
}