{
    "resourceType": "Bundle",
    "id": "PADV-CHANGE",
    "meta": {
        "lastUpdated": "2021-09-22T11:56:16.435+02:00",
        "profile": [
            "http://fhir.ch/ig/ch-emed/StructureDefinition/ch-emed-document-pharmaceuticaladvice"
        ]
    },
    "identifier": {
        "system": "urn:ietf:rfc:3986",
        "value": "urn:uuid:6f7b891e-345d-4db4-8a3e-8ba0544cd09b"
    },
    "type": "document",
    "timestamp": "2021-09-22T11:56:16.464+02:00",
    "entry": [
        {
            "fullUrl": "https://example.ch/Composition/6f7b891e-345d-4db4-8a3e-8ba0544cd09b",
            "resource": {
                "resourceType": "Composition",
                "id": "6f7b891e-345d-4db4-8a3e-8ba0544cd09b",
                "language": "de-CH",
                "text": {
                    "status": "extensions",
                    "div": "<div xmlns=\"http://www.w3.org/1999/xhtml\">TODO</div>"
                },
                "extension": [
                    {
                        "url": "http://fhir.ch/ig/ch-core/StructureDefinition/ch-ext-epr-informationrecipient",
                        "valueReference": {
                            "reference": "Patient/7566725121977"
                        }
                    }
                ],
                "identifier": {
                    "system": "urn:ietf:rfc:3986",
                    "value": "urn:uuid:6f7b891e-345d-4db4-8a3e-8ba0544cd09b"
                },
                "status": "final",
                "type": {
                    "coding": [
                        {
                            "system": "http://loinc.org",
                            "code": "61356-2",
                            "display": "Medication pharmaceutical advice.extended"
                        },
                        {
                            "system": "http://snomed.info/sct",
                            "code": "419891008",
                            "display": "Record artifact (record artifact)"
                        }
                    ]
                },
                "subject": {
                    "reference": "Patient/7566725121977"
                },
                "date": "2021-09-22T11:56:16+02:00",
                "author": [
                    {
                        "reference": "https://example.ch/PractitionerRole/Pharma"
                    }
                ],
                "title": "Kommentar zur Medikation",
                "confidentiality": "N",
                "_confidentiality": {
                    "extension": [
                        {
                            "url": "http://fhir.ch/ig/ch-core/StructureDefinition/ch-ext-epr-confidentialitycode",
                            "valueCodeableConcept": {
                                "coding": [
                                    {
                                        "system": "http://snomed.info/sct",
                                        "code": "17621005",
                                        "display": "Normally accessible"
                                    }
                                ]
                            }
                        }
                    ]
                },
                "custodian": {
                    "reference": "Organization/14090"
                },
                "section": [
                    {
                        "title": "Hinweise zur Medikation",
                        "code": {
                            "coding": [
                                {
                                    "system": "http://loinc.org",
                                    "code": "61357-0",
                                    "display": "Medication pharmaceutical advice.brief"
                                }
                            ]
                        },
                        "text": {
                            "status": "generated",
                            "div": "<div xmlns=\"http://www.w3.org/1999/xhtml\">TODO</div>"
                        },
                        "entry": [
                            {
                                "reference": "Observation/6f7b891e-345d-4db4-8a3e-8ba0544cd09b"
                            }
                        ]
                    }
                ]
            }
        },
        {
            "fullUrl": "https://example.ch/Observation/6f7b891e-345d-4db4-8a3e-8ba0544cd09b",
            "resource": {
                "resourceType": "Observation",
                "id": "6f7b891e-345d-4db4-8a3e-8ba0544cd09b",
                "text": {
                    "status": "empty",
                    "div": "<div xmlns=\"http://www.w3.org/1999/xhtml\">TODO</div>"
                },
                "extension": [
                    {
                        "url": "http://fhir.ch/ig/ch-emed/StructureDefinition/ch-emed-ext-dispense",
                        "extension": [
                            {
                                "url": "id",
                                "valueIdentifier": {
                                    "system": "urn:ietf:rfc:3986",
                                    "value": "urn:uuid:caf5e693-2cfc-46b7-aa9e-f0349bf0d711"
                                }
                            },
                            {
                                "url": "externalDocumentId",
                                "valueIdentifier": {
                                    "system": "urn:ietf:rfc:3986",
                                    "value": "urn:uuid:caf5e693-2cfc-46b7-aa9e-f0349bf0d711"
                                }
                            }
                        ]
                    }
                ],
                "identifier": [
                    {
                        "system": "urn:ietf:rfc:3986",
                        "value": "urn:uuid:6f7b891e-345d-4db4-8a3e-8ba0544cd09b"
                    }
                ],
                "status": "final",
                "code": {
                    "coding": [
                        {
                            "system": "urn:oid:1.3.6.1.4.1.19376.1.9.2.1",
                            "code": "CHANGE"
                        }
                    ]
                },
                "subject": {
                    "reference": "Patient/7566725121977"
                },
                "effectiveDateTime": "2021-09-21T15:32:17+02:00",
                "note": [
                    {
                        "text": "Adaptation de la posologie",
                        "extension": [
                            {
                                "url": "http://hl7.org/fhir/StructureDefinition/narrativeLink",
                                "valueUrl": "#padv.1.note"
                            }
                        ]
                    }
                ]
            }
        },
        {
            "fullUrl": "https://example.ch/MedicationStatement/ChangeDosage",
            "resource": {
                "resourceType": "MedicationStatement",
                "id": "ChangeDosage",
                "text": {
                    "status": "generated",
                    "div": "<div xmlns=\"http://www.w3.org/1999/xhtml\">TODO</div>"
                },
                "contained": [
                    {
                        "resourceType": "Medication",
                        "id": "med"
                    }
                ],
                "extension": [
                    {
                        "url": "http://hl7.org/fhir/StructureDefinition/narrativeLink",
                        "valueUrl": "#padv.1"
                    }
                ],
                "identifier": [
                    {
                        "system": "urn:ietf:rfc:3986",
                        "value": "urn:uuid:6f7b891e-345d-4db4-8a3e-8ba0544cd09b"
                    }
                ],
                "status": "completed",
                "medicationReference": {
                    "reference": "#med"
                },
                "subject": {
                    "reference": "Patient/7566725121977"
                },
                "reasonCode": [
                    {
                        "text": "One reason",
                        "extension": [
                            {
                                "url": "http://hl7.org/fhir/StructureDefinition/narrativeLink",
                                "valueUrl": "#padv.1.reason"
                            }
                        ]
                    }
                ],
                "dosage": [
                    {
                        "timing": {
                            "repeat": {
                                "boundsPeriod": {
                                    "start": "2021-09-21T00:00:00+02:00",
                                    "end": "2021-10-11T00:00:00+02:00"
                                },
                                "when": [
                                    "CM"
                                ]
                            }
                        },
                        "route": {
                            "coding": [
                                {
                                    "system": "urn:oid:0.4.0.127.0.16.1.1.2.1",
                                    "code": "20053000",
                                    "display": "Oral use"
                                }
                            ]
                        },
                        "method": {
                            "text": "action inconnue"
                        },
                        "doseAndRate": [
                            {
                                "doseQuantity": {
                                    "value": 0.5,
                                    "unit": "N/A",
                                    "system": "http://unitsofmeasure.org",
                                    "code": "{Unit}"
                                }
                            }
                        ]
                    }
                ]
            }
        },
        {
            "fullUrl": "https://example.ch/Patient/7566725121977",
            "resource": {
                "resourceType": "Patient",
                "id": "7566725121977",
                "text": {
                    "status": "generated",
                    "div": "<div xmlns=\"http://www.w3.org/1999/xhtml\">TODO</div>"
                },
                "identifier": [
                    {
                        "type": {
                            "coding": [
                                {
                                    "system": "http://terminology.hl7.org/CodeSystem/v2-0203",
                                    "code": "MR"
                                }
                            ]
                        },
                        "system": "urn:oid:2.16.756.5.30.388.2.2.1.1",
                        "value": "7566725121977"
                    }
                ],
                "name": [
                    {
                        "family": "HUWYLER-MUKERA",
                        "given": [
                            "LAYLA MARGUERITE"
                        ]
                    }
                ],
                "gender": "female",
                "birthDate": "1972-06-15",
                "address": [
                    {
                        "use": "work",
                        "line": [
                            "Rue de la Gare 1"
                        ],
                        "city": "Morges",
                        "postalCode": "1211",
                        "country": "CH"
                    }
                ]
            }
        },
        {
            "fullUrl": "https://example.ch/Organization/14090",
            "resource": {
                "resourceType": "Organization",
                "id": "14090",
                "text": {
                    "status": "generated",
                    "div": "<div xmlns=\"http://www.w3.org/1999/xhtml\">TODO</div>"
                },
                "identifier": [
                    {
                        "system": "urn:oid:2.51.1.3",
                        "value": "7601001007451"
                    }
                ],
                "name": "Bora Bora OLS TACTIL",
                "address": [
                    {
                        "use": "work",
                        "line": [
                            "Rue Pedro Meylan 7"
                        ],
                        "city": "Genève 17",
                        "postalCode": "1211",
                        "country": "CH"
                    }
                ]
            }
        },
        {
            "fullUrl": "https://example.ch/PractitionerRole/Pharma",
            "resource": {
                "resourceType": "PractitionerRole",
                "id": "Pharma",
                "active": true,
                "code": [
                    {
                        "coding": [
                            {
                                "system": "http://terminology.hl7.org/CodeSystem/practitioner-role",
                                "code": "pharmacist"
                            }
                        ]
                    }
                ]
            }
        }
    ]
}