{
    "resourceType": "Bundle",
    "id": "PADV-CANCEL",
    "meta": {
        "lastUpdated": "2021-09-22T10:54:08.372+02:00",
        "profile": [
            "http://fhir.ch/ig/ch-emed/StructureDefinition/ch-emed-document-pharmaceuticaladvice"
        ]
    },
    "identifier": {
        "system": "urn:ietf:rfc:3986",
        "value": "urn:uuid:cd9af6cd-cf48-447f-b43e-8ba08c400c9d"
    },
    "type": "document",
    "timestamp": "2021-09-22T10:54:08.399+02:00",
    "entry": [
        {
            "fullUrl": "https://example.ch/Composition/cd9af6cd-cf48-447f-b43e-8ba08c400c9d",
            "resource": {
                "resourceType": "Composition",
                "id": "cd9af6cd-cf48-447f-b43e-8ba08c400c9d",
                "language": "de-CH",
                "text": {
                    "status": "extensions",
                    "div": "<div xmlns=\"http://www.w3.org/1999/xhtml\">TODO</div>"
                },
                "extension": [
                    {
                        "url": "http://fhir.ch/ig/ch-core/StructureDefinition/ch-ext-epr-informationrecipient",
                        "valueReference": {
                            "reference": "Patient/7566725119971"
                        }
                    }
                ],
                "identifier": {
                    "system": "urn:ietf:rfc:3986",
                    "value": "urn:uuid:cd9af6cd-cf48-447f-b43e-8ba08c400c9d"
                },
                "status": "final",
                "type": {
                    "coding": [
                        {
                            "system": "http://loinc.org",
                            "code": "61356-2",
                            "display": "Medication pharmaceutical advice.extended"
                        },
                        {
                            "system": "http://snomed.info/sct",
                            "code": "419891008",
                            "display": "Record artifact (record artifact)"
                        }
                    ]
                },
                "subject": {
                    "reference": "Patient/7566725119971"
                },
                "date": "2021-09-22T10:54:08+02:00",
                "author": [
                    {
                        "reference": "https://example.ch/PractitionerRole/Pharma"
                    }
                ],
                "title": "Kommentar zur Medikation",
                "confidentiality": "N",
                "_confidentiality": {
                    "extension": [
                        {
                            "url": "http://fhir.ch/ig/ch-core/StructureDefinition/ch-ext-epr-confidentialitycode",
                            "valueCodeableConcept": {
                                "coding": [
                                    {
                                        "system": "http://snomed.info/sct",
                                        "code": "17621005",
                                        "display": "Normally accessible"
                                    }
                                ]
                            }
                        }
                    ]
                },
                "custodian": {
                    "reference": "Organization/14090"
                },
                "section": [
                    {
                        "title": "Hinweise zur Medikation",
                        "code": {
                            "coding": [
                                {
                                    "system": "http://loinc.org",
                                    "code": "61357-0",
                                    "display": "Medication pharmaceutical advice.brief"
                                }
                            ]
                        },
                        "text": {
                            "status": "generated",
                            "div": "<div xmlns=\"http://www.w3.org/1999/xhtml\">TODO</div>"
                        },
                        "entry": [
                            {
                                "reference": "Observation/cd9af6cd-cf48-447f-b43e-8ba08c400c9d"
                            }
                        ]
                    }
                ]
            }
        },
        {
            "fullUrl": "https://example.ch/Observation/cd9af6cd-cf48-447f-b43e-8ba08c400c9d",
            "resource": {
                "resourceType": "Observation",
                "id": "cd9af6cd-cf48-447f-b43e-8ba08c400c9d",
                "text": {
                    "status": "empty",
                    "div": "<div xmlns=\"http://www.w3.org/1999/xhtml\">TODO</div>"
                },
                "extension": [
                    {
                        "url": "http://fhir.ch/ig/ch-emed/StructureDefinition/ch-emed-ext-dispense",
                        "extension": [
                            {
                                "url": "id",
                                "valueIdentifier": {
                                    "system": "urn:ietf:rfc:3986",
                                    "value": "urn:uuid:aa7ac766-9fd9-43ab-a4e8-ee4c4f53f235"
                                }
                            },
                            {
                                "url": "externalDocumentId",
                                "valueIdentifier": {
                                    "system": "urn:ietf:rfc:3986",
                                    "value": "urn:uuid:aa7ac766-9fd9-43ab-a4e8-ee4c4f53f235"
                                }
                            }
                        ]
                    }
                ],
                "identifier": [
                    {
                        "system": "urn:ietf:rfc:3986",
                        "value": "urn:uuid:cd9af6cd-cf48-447f-b43e-8ba08c400c9d"
                    }
                ],
                "status": "final",
                "code": {
                    "coding": [
                        {
                            "system": "urn:oid:1.3.6.1.4.1.19376.1.9.2.1",
                            "code": "CANCEL"
                        }
                    ]
                },
                "subject": {
                    "reference": "Patient/7566725119971"
                },
                "effectiveDateTime": "2020-11-28T00:00:00+01:00",
                "note": [
                    {
                        "text": "note",
                        "extension": [
                            {
                                "url": "http://hl7.org/fhir/StructureDefinition/narrativeLink",
                                "valueUrl": "#padv.1.note"
                            }
                        ]
                    }
                ]
            }
        },
        {
            "fullUrl": "https://example.ch/Patient/7566725119971",
            "resource": {
                "resourceType": "Patient",
                "id": "7566725119971",
                "text": {
                    "status": "generated",
                    "div": "<div xmlns=\"http://www.w3.org/1999/xhtml\">TODO</div>"
                },
                "identifier": [
                    {
                        "type": {
                            "coding": [
                                {
                                    "system": "http://terminology.hl7.org/CodeSystem/v2-0203",
                                    "code": "MR"
                                }
                            ]
                        },
                        "system": "urn:oid:2.16.756.5.30.388.2.2.1.1",
                        "value": "7566725119971"
                    }
                ],
                "name": [
                    {
                        "family": "WEGMUELLER",
                        "given": [
                            "MONIKA"
                        ]
                    }
                ],
                "gender": "female",
                "birthDate": "1943-05-15",
                "address": [
                    {
                        "use": "work",
                        "line": [
                            "Wiesenstr. 12"
                        ],
                        "city": "Zürich",
                        "postalCode": "1211",
                        "country": "CH"
                    }
                ]
            }
        },
        {
            "fullUrl": "https://example.ch/Organization/14090",
            "resource": {
                "resourceType": "Organization",
                "id": "14090",
                "text": {
                    "status": "generated",
                    "div": "<div xmlns=\"http://www.w3.org/1999/xhtml\">TODO</div>"
                },
                "identifier": [
                    {
                        "system": "urn:oid:2.51.1.3",
                        "value": "7601001007451"
                    }
                ],
                "name": "Bora Bora OLS TACTIL",
                "address": [
                    {
                        "use": "work",
                        "line": [
                            "Rue Pedro Meylan 7"
                        ],
                        "city": "Genève 17",
                        "postalCode": "1211",
                        "country": "CH"
                    }
                ]
            }
        },
        {
            "fullUrl": "https://example.ch/PractitionerRole/Pharma",
            "resource": {
                "resourceType": "PractitionerRole",
                "id": "Pharma",
                "active": true,
                "code": [
                    {
                        "coding": [
                            {
                                "system": "http://snomed.info/sct",
                                "code": "46255001",
                                "display": "Pharmacist (occupation)"
                            }
                        ]
                    }
                ]
            }
        }
    ]
}